rtcDate,rtcTime,aX,aY,aZ,gX,gY,gZ,mX,mY,mZ,imu_degC,gps_Date,gps_Time,gps_Lat,gps_Long,gps_Alt,gps_SIV,gps_FixType,gps_GroundSpeed,gps_Heading,gps_pDOP,output_Hz,
01/01/2000,00:00:03.10,333.01,3.42,-878.42,40.35,32.17,2.61,-19.80,-27.45,35.25,16.96,03/22/2020,00:00:02.500,0,0,0,0,0,0,0,9999,1.887,
01/01/2000,00:00:03.65,515.14,-131.84,-843.75,10.37,-26.69,-5.15,-21.15,-30.45,36.45,17.15,03/22/2020,00:00:02.800,0,0,0,0,0,0,0,9999,2.410,
01/01/2000,00:00:03.94,303.71,17.58,-618.16,-16.24,-40.34,-8.16,-19.05,-23.40,32.85,16.96,03/22/2020,00:00:02.900,0,0,0,0,0,0,0,9999,3.226,
01/01/2000,00:00:04.05,304.20,-57.13,-856.93,13.63,-40.34,7.51,-17.25,-24.45,31.05,17.01,03/22/2020,00:00:03.000,0,0,0,0,0,0,0,9999,3.846,
01/01/2000,00:00:04.16,287.11,132.32,-875.49,34.09,36.76,10.92,-16.05,-26.55,29.55,17.01,03/22/2020,00:00:03.100,0,0,0,0,0,0,0,9999,4.348,
01/01/2000,00:00:04.26,248.05,-179.20,-1190.92,8.63,-52.27,-9.55,-16.65,-26.25,33.0,16.82,03/22/2020,00:00:03.200,0,0,0,0,0,0,0,9999,4.878,
01/01/2000,00:00:04.36,807.62,-189.94,-219.24,-7.88,11.40,-15.23,-14.85,-23.55,27.75,17.29,03/22/2020,00:00:03.300,0,0,0,0,0,0,0,9999,5.263,
01/01/2000,00:00:04.46,253.91,271.00,-1072.75,20.75,-5.11,56.11,-16.35,-27.30,28.35,16.96,03/22/2020,00:00:03.400,0,0,0,0,0,0,0,9999,5.594,
01/01/2000,00:00:04.56,1443.85,1999.94,-2000.0,-106.24,88.88,32.86,-13.05,-27.0,25.20,17.25,03/22/2020,00:00:03.500,0,0,0,0,0,0,0,9999,5.882,
01/01/2000,00:00:04.66,531.74,186.52,-812.50,4.53,20.91,17.01,-15.60,-31.35,28.35,17.29,03/22/2020,00:00:03.600,0,0,0,0,0,0,0,9999,6.135,
01/01/2000,00:00:04.76,72.75,-400.88,-1263.67,-41.40,-58.60,87.45,-14.85,-29.85,27.30,17.29,03/22/2020,00:00:03.700,0,0,0,0,0,0,0,9999,6.395,
01/01/2000,00:00:04.86,815.43,-136.72,-749.51,-2.34,54.19,150.22,-10.20,-35.55,27.30,17.44,03/22/2020,00:00:03.800,0,0,0,0,0,0,0,9999,6.593,
01/01/2000,00:00:04.96,-35.64,-609.38,-824.22,-49.82,-33.80,222.40,-3.75,-40.35,25.20,17.34,03/22/2020,00:00:03.900,0,0,0,0,0,0,0,9999,6.771,
01/01/2000,00:00:05.06,833.50,-217.29,-690.43,135.06,211.84,151.46,8.25,-43.20,24.0,17.29,03/22/2020,00:00:04.000,0,0,0,0,0,0,0,9999,6.829,
01/01/2000,00:00:05.16,230.47,-221.68,-938.96,-171.34,-201.09,18.35,9.45,-44.40,22.35,17.34,03/22/2020,00:00:04.100,0,0,0,0,0,0,0,9999,7.042,
01/01/2000,00:00:05.26,-232.42,51.27,-1110.35,21.24,-26.50,-39.73,19.35,-42.0,21.45,17.68,03/22/2020,00:00:04.200,0,0,0,0,0,0,0,9999,7.175,
01/01/2000,00:00:05.36,347.17,-80.08,-1273.44,-138.47,-32.97,35.53,14.70,-38.70,21.45,17.49,03/22/2020,00:00:04.300,0,0,0,0,0,0,0,9999,7.296,
01/01/2000,00:00:05.46,-66.41,-216.31,-966.80,157.97,1.40,50.27,16.05,-38.55,22.05,17.53,03/22/2020,00:00:04.400,0,0,0,0,0,0,0,9999,7.407,
01/01/2000,00:00:05.56,190.43,-67.38,-846.19,16.31,-69.69,-35.05,23.25,-43.35,23.40,17.53,03/22/2020,00:00:04.500,0,0,0,0,0,0,0,9999,7.510,
01/01/2000,00:00:05.66,231.45,-125.49,-1149.41,-18.76,-15.47,-7.24,25.20,-45.75,26.10,17.77,03/22/2020,00:00:04.600,0,0,0,0,0,0,0,9999,7.634,
01/01/2000,00:00:05.76,-132.81,-342.77,-1362.30,-151.20,128.73,13.37,23.40,-43.95,23.70,17.63,03/22/2020,00:00:04.700,0,0,0,0,0,0,0,9999,7.721,
01/01/2000,00:00:05.86,26.86,-237.30,-636.23,55.41,-44.92,18.73,20.55,-43.50,22.95,17.49,03/22/2020,00:00:04.800,0,0,0,0,0,0,0,9999,7.801,
01/01/2000,00:00:05.96,85.45,-1033.20,545.90,-76.07,-3.78,56.70,19.65,-42.60,17.85,17.77,03/22/2020,00:00:04.900,0,0,0,0,0,0,0,9999,7.797,
01/01/2000,00:00:06.06,103.03,-353.03,-782.71,-9.84,-22.50,18.89,24.30,-39.60,17.40,17.77,03/22/2020,00:00:05.000,0,0,0,0,0,0,0,9999,7.921,
01/01/2000,00:00:06.16,-180.18,-402.83,-819.34,-113.41,-107.02,-53.24,29.10,-34.95,14.85,17.53,03/22/2020,00:00:05.100,0,0,0,0,0,0,0,9999,7.987,
01/01/2000,00:00:06.26,-163.09,243.65,-980.96,25.73,-85.69,68.36,28.95,-29.55,16.35,17.82,03/22/2020,00:00:05.200,0,0,0,0,0,0,0,9999,8.050,
01/01/2000,00:00:06.36,-587.89,-213.38,-938.96,-34.14,-30.79,18.44,38.55,-27.15,15.15,17.49,03/22/2020,00:00:05.300,0,0,0,0,0,0,0,9999,8.108,
01/01/2000,00:00:06.46,-82.52,275.39,-1081.05,18.43,10.88,25.72,37.80,-26.40,20.10,17.44,03/22/2020,00:00:05.400,0,0,0,0,0,0,0,9999,8.163,
01/01/2000,00:00:06.56,-182.62,-88.38,-866.70,30.14,58.17,17.31,32.10,-27.15,15.90,17.87,03/22/2020,00:00:05.500,0,0,0,0,0,0,0,9999,8.215,
01/01/2000,00:00:06.66,-280.76,-105.47,-710.45,64.69,63.80,61.50,34.35,-23.25,12.15,17.53,03/22/2020,00:00:05.600,0,0,0,0,0,0,0,9999,8.287,
01/01/2000,00:00:06.76,-232.42,-326.66,-800.29,-52.50,36.03,64.43,32.25,-25.05,11.40,17.97,03/22/2020,00:00:05.700,0,0,0,0,0,0,0,9999,8.333,
01/01/2000,00:00:06.86,-64.45,-123.54,-716.31,15.64,-60.76,-2.86,28.20,-19.80,9.60,17.77,03/22/2020,00:00:05.800,0,0,0,0,0,0,0,9999,8.377,
01/01/2000,00:00:06.96,-2.44,-104.49,-925.29,38.59,-12.76,42.44,29.85,-23.85,14.10,17.97,03/22/2020,00:00:05.900,0,0,0,0,0,0,0,9999,8.354,
01/01/2000,00:00:07.07,152.83,50.78,-860.84,-66.47,33.02,60.58,34.35,-18.75,11.10,18.01,03/22/2020,00:00:06.000,0,0,0,0,0,0,0,9999,8.437,
01/01/2000,00:00:07.17,-65.92,96.19,-1081.05,49.86,-20.08,-36.06,33.15,-19.65,15.45,18.06,03/22/2020,00:00:06.100,0,0,0,0,0,0,0,9999,8.475,
01/01/2000,00:00:07.27,-35.64,209.47,-1136.72,-35.02,19.37,-6.0,37.05,-19.35,12.60,17.87,03/22/2020,00:00:06.200,0,0,0,0,0,0,0,9999,8.511,
01/01/2000,00:00:07.37,-212.89,192.87,-937.01,37.72,0.08,-30.53,34.65,-22.35,17.55,17.87,03/22/2020,00:00:06.300,0,0,0,0,0,0,0,9999,8.545,
01/01/2000,00:00:07.46,-187.50,149.41,-801.76,-17.21,-13.95,-47.89,35.55,-19.80,15.60,17.97,03/22/2020,00:00:06.400,0,0,0,0,0,0,0,9999,8.578,
01/01/2000,00:00:07.56,-569.34,202.64,-912.11,-27.70,-0.35,-32.90,35.70,-20.40,16.20,17.82,03/22/2020,00:00:06.500,0,0,0,0,0,0,0,9999,8.609,
01/01/2000,00:00:07.66,-437.01,157.71,-910.16,-47.62,14.93,-31.08,33.0,-22.50,19.95,18.01,03/22/2020,00:00:06.600,0,0,0,0,0,0,0,9999,8.639,
01/01/2000,00:00:07.76,-227.54,225.59,-877.93,51.91,16.21,-88.78,33.90,-24.15,19.80,17.97,03/22/2020,00:00:06.700,0,0,0,0,0,0,0,9999,8.668,
01/01/2000,00:00:07.86,-205.08,399.41,-935.06,-7.82,-63.15,-60.85,33.30,-25.50,22.05,17.87,03/22/2020,00:00:06.800,0,0,0,0,0,0,0,9999,8.696,
01/01/2000,00:00:07.96,-943.36,-146.00,-1776.86,-1.27,118.36,44.26,32.40,-28.20,25.80,17.87,03/22/2020,00:00:06.900,0,0,0,0,0,0,0,9999,8.722,
01/01/2000,00:00:08.06,-345.21,-57.62,-955.08,11.73,31.80,19.81,31.20,-29.25,27.0,18.01,03/22/2020,00:00:07.000,0,0,0,0,0,0,0,9999,8.748,
01/01/2000,00:00:08.16,-138.18,16.11,-854.00,6.11,95.48,-0.73,27.0,-29.40,23.25,18.16,03/22/2020,00:00:07.100,0,0,0,0,0,0,0,9999,8.772,
01/01/2000,00:00:08.26,-33.20,46.88,-1153.32,-6.61,24.75,0.44,23.25,-30.60,26.25,18.06,03/22/2020,00:00:07.200,0,0,0,0,0,0,0,9999,8.795,
01/01/2000,00:00:08.36,-68.85,-24.90,-951.17,0.38,1.98,0.67,22.65,-31.65,25.35,18.06,03/22/2020,00:00:07.300,0,0,0,0,0,0,0,9999,8.835,
01/01/2000,00:00:08.46,-86.43,-35.64,-1048.34,2.73,0.17,-2.31,22.80,-30.60,25.65,18.06,03/22/2020,00:00:07.400,0,0,0,0,0,0,0,9999,8.856,
01/01/2000,00:00:08.56,-125.98,4.88,-931.64,5.97,1.03,0.34,26.40,-28.50,24.45,18.21,03/22/2020,00:00:07.500,0,0,0,0,0,0,0,9999,8.877,
01/01/2000,00:00:08.66,-50.29,-22.95,-964.36,1.29,-0.56,1.85,25.20,-28.20,23.70,17.87,03/22/2020,00:00:07.600,0,0,0,0,0,0,0,9999,8.897,
01/01/2000,00:00:08.76,-47.36,-12.70,-978.03,2.89,1.51,-3.37,22.50,-29.85,26.25,17.87,03/22/2020,00:00:07.700,0,0,0,0,0,0,0,9999,8.916,
01/01/2000,00:00:08.86,-64.45,-20.02,-970.21,5.15,-0.31,1.95,22.65,-31.95,25.35,18.21,03/22/2020,00:00:07.800,0,0,0,0,0,0,0,9999,8.889,
01/01/2000,00:00:08.96,-62.01,-21.00,-975.10,3.89,-1.44,-0.24,25.20,-30.15,23.70,17.82,03/22/2020,00:00:07.900,0,0,0,0,0,0,0,9999,8.938,
01/01/2000,00:00:09.06,-65.43,-23.44,-982.91,0.76,-1.58,4.80,25.20,-30.45,23.25,18.30,03/22/2020,00:00:08.000,0,0,0,0,0,0,0,9999,8.955,
01/01/2000,00:00:09.16,-44.43,-20.02,-966.80,3.78,1.34,0.54,23.70,-31.20,25.35,18.21,03/22/2020,00:00:08.100,0,0,0,0,0,0,0,9999,8.972,
01/01/2000,00:00:09.26,-48.83,-22.95,-948.24,2.75,-1.12,-0.56,24.45,-28.95,23.25,18.21,03/22/2020,00:00:08.200,0,0,0,0,0,0,0,9999,8.989,
01/01/2000,00:00:09.36,-46.88,-13.67,-970.21,0.22,-1.56,-1.98,22.80,-31.80,26.70,18.35,03/22/2020,00:00:08.300,0,0,0,0,0,0,0,9999,9.019,
01/01/2000,00:00:09.46,-75.68,-14.16,-961.43,4.18,-0.99,-0.27,25.20,-30.45,23.70,18.54,03/22/2020,00:00:08.400,0,0,0,0,0,0,0,9999,9.034,
01/01/2000,00:00:09.56,-46.39,-18.07,-960.94,3.80,1.51,1.98,23.40,-32.70,26.40,18.40,03/22/2020,00:00:08.500,0,0,0,0,0,0,0,9999,9.049,
01/01/2000,00:00:09.66,-53.71,-8.30,-966.31,2.82,0.57,-1.15,25.95,-29.40,23.70,18.21,03/22/2020,00:00:08.600,0,0,0,0,0,0,0,9999,9.063,
01/01/2000,00:00:09.76,-53.71,-12.21,-963.38,4.15,-1.19,-0.44,24.90,-28.95,23.70,18.49,03/22/2020,00:00:08.700,0,0,0,0,0,0,0,9999,9.037,
01/01/2000,00:00:09.87,-57.62,-22.95,-966.80,-0.02,-2.38,-1.44,25.35,-29.55,23.40,18.35,03/22/2020,00:00:08.800,0,0,0,0,0,0,0,9999,9.064,
01/01/2000,00:00:09.97,-54.69,-21.00,-968.75,0.34,-0.30,2.38,23.55,-30.60,26.25,18.35,03/22/2020,00:00:08.900,0,0,0,0,0,0,0,9999,9.078,
01/01/2000,00:00:10.07,-57.13,-21.48,-977.54,2.40,-1.06,2.41,24.90,-30.15,24.75,18.35,03/22/2020,00:00:09.000,0,0,0,0,0,0,0,9999,9.104,
01/01/2000,00:00:10.17,-45.41,0.98,-973.63,2.12,-1.22,-1.95,25.50,-29.40,23.70,18.30,03/22/2020,00:00:09.100,0,0,0,0,0,0,0,9999,9.116,
01/01/2000,00:00:10.27,-126.46,-11.72,-954.59,19.96,-12.18,-20.43,23.55,-31.35,27.30,18.40,03/22/2020,00:00:09.200,0,0,0,0,0,0,0,9999,9.129,
01/01/2000,00:00:10.37,-83.01,-83.01,-972.66,26.99,0.05,-24.62,25.80,-31.35,23.85,18.35,03/22/2020,00:00:09.300,0,0,0,0,0,0,0,9999,9.141,
01/01/2000,00:00:10.47,-23.44,-62.50,-958.50,11.67,4.47,-12.34,24.15,-36.45,26.85,18.54,03/22/2020,00:00:09.400,0,0,0,0,0,0,0,9999,9.152,
01/01/2000,00:00:10.57,-41.99,-83.98,-939.45,7.49,-1.88,-5.69,22.50,-35.10,25.65,18.30,03/22/2020,00:00:09.500,0,0,0,0,0,0,0,9999,9.163,
01/01/2000,00:00:10.66,-21.00,-162.60,-925.78,0.58,2.19,7.27,22.50,-35.55,24.15,18.49,03/22/2020,00:00:09.600,0,0,0,0,0,0,0,9999,9.174,
01/01/2000,00:00:10.76,-32.23,-229.98,-958.01,-3.60,1.75,32.28,23.70,-35.70,22.20,18.49,03/22/2020,00:00:09.700,0,0,0,0,0,0,0,9999,9.185,
01/01/2000,00:00:10.86,-145.51,-177.25,-950.20,-14.53,-1.42,23.64,25.50,-36.0,21.15,18.59,03/22/2020,00:00:09.800,0,0,0,0,0,0,0,9999,9.195,
01/01/2000,00:00:10.96,-70.80,-75.20,-991.21,-5.99,1.55,8.56,25.05,-33.60,20.70,18.54,03/22/2020,00:00:09.900,0,0,0,0,0,0,0,9999,9.206,
01/01/2000,00:00:11.06,-14.65,-122.07,-971.68,-10.01,0.29,23.99,24.15,-33.90,24.30,18.83,03/22/2020,00:00:10.000,0,0,0,0,0,0,0,9999,9.215,
01/01/2000,00:00:11.16,-81.05,133.30,-958.98,4.20,15.56,37.66,25.95,-33.15,22.95,18.40,03/22/2020,00:00:10.100,0,0,0,0,0,0,0,9999,9.225,
01/01/2000,00:00:11.26,-90.82,-37.11,-948.24,0.44,0.31,-1.69,26.70,-30.90,20.40,18.49,03/22/2020,00:00:10.200,0,0,0,0,0,0,0,9999,9.235,
01/01/2000,00:00:11.36,-62.50,-8.79,-976.07,2.30,2.34,2.49,26.10,-31.80,22.35,18.59,03/22/2020,00:00:10.300,0,0,0,0,0,0,0,9999,9.244,
01/01/2000,00:00:11.46,-68.85,-14.65,-973.14,1.85,0.48,2.21,25.95,-29.70,20.10,18.73,03/22/2020,00:00:10.400,0,0,0,0,0,0,0,9999,9.253,
01/01/2000,00:00:11.56,-57.13,-20.02,-980.96,4.25,-2.73,1.13,28.50,-30.15,19.80,18.68,03/22/2020,00:00:10.500,0,0,0,0,0,0,0,9999,9.261,
01/01/2000,00:00:11.66,-58.59,-15.63,-965.82,1.83,0.41,0.05,25.05,-31.80,22.35,18.59,03/22/2020,00:00:10.600,0,0,0,0,0,0,0,9999,9.281,
01/01/2000,00:00:11.76,-45.41,-9.28,-972.17,2.24,-1.43,0.63,26.10,-31.05,22.05,18.68,03/22/2020,00:00:10.700,0,0,0,0,0,0,0,9999,9.289,
01/01/2000,00:00:11.86,-59.57,-19.53,-970.21,3.23,-2.51,1.91,27.90,-30.30,20.25,18.54,03/22/2020,00:00:10.800,0,0,0,0,0,0,0,9999,9.297,
01/01/2000,00:00:11.96,-69.82,-25.39,-953.61,5.07,-1.39,1.31,28.50,-30.15,19.80,18.73,03/22/2020,00:00:10.900,0,0,0,0,0,0,0,9999,9.274,
01/01/2000,00:00:12.06,-58.11,-5.37,-975.10,2.05,0.30,0.37,28.20,-30.30,21.0,18.83,03/22/2020,00:00:11.000,0,0,0,0,0,0,0,9999,9.302,
01/01/2000,00:00:12.16,-65.43,-16.60,-969.24,1.71,-0.77,-0.78,24.90,-31.20,21.90,18.54,03/22/2020,00:00:11.100,0,0,0,0,0,0,0,9999,9.310,
01/01/2000,00:00:12.26,-47.85,-16.11,-973.63,1.36,0.58,-0.09,24.90,-31.95,23.25,18.83,03/22/2020,00:00:11.200,0,0,0,0,0,0,0,9999,9.317,
01/01/2000,00:00:12.36,-46.88,-26.37,-954.10,1.27,0.02,1.60,25.20,-30.15,23.70,18.83,03/22/2020,00:00:11.300,0,0,0,0,0,0,0,9999,9.335,
01/01/2000,00:00:12.46,-68.36,-15.14,-965.33,3.24,0.19,2.0,25.50,-30.15,20.10,18.54,03/22/2020,00:00:11.400,0,0,0,0,0,0,0,9999,9.342,
01/01/2000,00:00:12.56,-55.66,-20.51,-985.35,2.53,1.98,0.14,25.50,-31.65,22.20,18.88,03/22/2020,00:00:11.500,0,0,0,0,0,0,0,9999,9.349,
01/01/2000,00:00:12.66,-56.15,-27.83,-976.56,2.79,-0.85,2.88,27.0,-29.40,20.40,19.02,03/22/2020,00:00:11.600,0,0,0,0,0,0,0,9999,9.356,
01/01/2000,00:00:12.76,-61.52,-21.00,-972.17,3.49,-0.77,1.36,26.25,-30.90,19.80,18.73,03/22/2020,00:00:11.700,0,0,0,0,0,0,0,9999,9.333,
01/01/2000,00:00:12.87,-68.36,-27.34,-974.61,0.86,1.52,-0.78,24.30,-30.60,24.15,18.88,03/22/2020,00:00:11.800,0,0,0,0,0,0,0,9999,9.359,
01/01/2000,00:00:12.97,-60.55,-10.74,-973.14,2.95,-0.66,0.80,25.50,-31.20,23.25,18.83,03/22/2020,00:00:11.900,0,0,0,0,0,0,0,9999,9.366,
01/01/2000,00:00:13.07,-51.76,-12.70,-955.08,0.88,-0.73,0.12,27.0,-30.45,19.05,18.83,03/22/2020,00:00:12.000,0,0,0,0,0,0,0,9999,9.372,
01/01/2000,00:00:13.17,-56.64,-19.53,-980.96,1.29,-3.02,0.89,27.15,-29.85,20.25,18.92,03/22/2020,00:00:12.100,0,0,0,0,0,0,0,9999,9.378,
01/01/2000,00:00:13.27,-41.50,-20.51,-967.77,2.45,0.68,1.81,25.80,-32.55,22.05,18.92,03/22/2020,00:00:12.200,0,0,0,0,0,0,0,9999,9.384,
01/01/2000,00:00:13.36,-62.99,-30.76,-976.56,6.04,0.47,-1.02,28.80,-31.20,20.40,18.88,03/22/2020,00:00:12.300,0,0,0,0,0,0,0,9999,9.390,
01/01/2000,00:00:13.46,-51.27,-25.88,-974.61,1.31,-0.79,1.89,24.15,-30.90,22.20,18.83,03/22/2020,00:00:12.400,0,0,0,0,0,0,0,9999,9.396,
01/01/2000,00:00:13.56,-41.99,-20.02,-958.50,2.78,0.44,2.95,26.40,-30.30,23.40,18.92,03/22/2020,00:00:12.500,0,0,0,0,0,0,0,9999,9.402,
01/01/2000,00:00:13.66,-55.66,-25.39,-977.54,3.12,-1.28,-1.09,25.35,-32.55,22.05,19.02,03/22/2020,00:00:12.600,0,0,0,0,0,0,0,9999,9.407,
01/01/2000,00:00:13.76,-57.13,-28.81,-963.38,3.62,0.08,0.01,27.15,-31.05,20.25,18.92,03/22/2020,00:00:12.800,0,0,0,0,0,0,0,9999,9.317,
01/01/2000,00:00:13.96,-54.20,-16.60,-978.52,2.78,1.05,0.81,28.05,-30.15,21.15,18.68,03/22/2020,00:00:12.900,0,0,0,0,0,0,0,9999,9.332,
01/01/2000,00:00:14.06,-66.89,-19.04,-973.14,0.96,0.69,1.17,25.50,-32.40,22.65,19.07,03/22/2020,00:00:13.000,0,0,0,0,0,0,0,9999,9.338,
01/01/2000,00:00:14.16,-61.04,-11.72,-961.43,2.90,-1.80,0.67,26.10,-31.80,22.80,18.92,03/22/2020,00:00:13.100,0,0,0,0,0,0,0,9999,9.344,
01/01/2000,00:00:14.26,-62.99,-19.04,-954.10,4.95,0.02,0.05,27.0,-30.45,21.45,18.92,03/22/2020,00:00:13.200,0,0,0,0,0,0,0,9999,9.350,
01/01/2000,00:00:14.36,-55.18,-20.51,-976.56,3.42,-1.32,0.90,28.20,-30.30,20.70,19.02,03/22/2020,00:00:13.300,0,0,0,0,0,0,0,9999,9.364,
01/01/2000,00:00:14.46,-53.22,-13.18,-979.49,2.15,-1.66,0.60,25.05,-30.60,22.80,18.92,03/22/2020,00:00:13.400,0,0,0,0,0,0,0,9999,9.370,
01/01/2000,00:00:14.56,-58.11,-28.32,-968.26,3.37,-0.02,-0.60,24.0,-31.35,22.80,19.12,03/22/2020,00:00:13.500,0,0,0,0,0,0,0,9999,9.375,
01/01/2000,00:00:14.66,-49.32,-31.25,-967.77,-0.34,0.50,1.07,25.50,-31.65,22.20,18.83,03/22/2020,00:00:13.600,0,0,0,0,0,0,0,9999,9.380,
01/01/2000,00:00:14.76,-51.76,-12.21,-961.43,3.81,1.08,-2.97,27.0,-30.90,21.90,19.02,03/22/2020,00:00:13.700,0,0,0,0,0,0,0,9999,9.386,
01/01/2000,00:00:14.86,-50.29,-22.46,-970.21,2.99,0.18,3.13,25.20,-31.20,22.20,19.12,03/22/2020,00:00:13.800,0,0,0,0,0,0,0,9999,9.367,
01/01/2000,00:00:14.96,-55.18,-17.09,-956.05,0.73,-0.58,3.16,27.30,-30.90,21.45,19.26,03/22/2020,00:00:13.900,0,0,0,0,0,0,0,9999,9.388,
01/01/2000,00:00:15.06,-64.45,-13.18,-979.49,2.11,-0.63,-0.95,27.15,-31.05,21.0,19.21,03/22/2020,00:00:14.000,0,0,0,0,0,0,0,9999,9.378,
01/01/2000,00:00:15.17,-63.48,-18.07,-979.00,3.29,0.06,1.11,27.30,-30.90,21.90,19.12,03/22/2020,00:00:14.100,0,0,0,0,0,0,0,9999,9.390,
01/01/2000,00:00:15.27,-49.80,-28.81,-963.38,5.43,0.01,2.12,25.50,-30.45,23.25,18.83,03/22/2020,00:00:14.200,0,0,0,0,0,0,0,9999,9.395,
01/01/2000,00:00:15.37,-57.62,-9.77,-981.93,2.27,-2.21,0.56,27.30,-31.95,20.85,19.12,03/22/2020,00:00:14.300,0,0,0,0,0,0,0,9999,9.400,
01/01/2000,00:00:15.47,-54.20,-16.60,-963.38,1.34,1.11,-1.14,28.50,-30.45,20.85,19.12,03/22/2020,00:00:14.400,0,0,0,0,0,0,0,9999,9.413,
01/01/2000,00:00:15.57,-56.15,-14.65,-964.36,0.88,-0.32,0.34,25.95,-31.20,19.80,19.12,03/22/2020,00:00:14.500,0,0,0,0,0,0,0,9999,9.417,
01/01/2000,00:00:15.67,-63.48,-10.25,-966.31,3.88,0.23,-0.87,25.95,-31.65,23.25,19.12,03/22/2020,00:00:14.600,0,0,0,0,0,0,0,9999,9.422,
01/01/2000,00:00:15.77,-64.94,-25.39,-979.49,2.21,-1.50,-2.13,25.80,-31.05,22.35,19.40,03/22/2020,00:00:14.700,0,0,0,0,0,0,0,9999,9.427,
01/01/2000,00:00:15.87,-47.36,-23.93,-979.00,3.77,-2.15,-0.32,25.95,-30.45,22.65,19.12,03/22/2020,00:00:14.800,0,0,0,0,0,0,0,9999,9.431,
01/01/2000,00:00:15.96,-56.64,-25.39,-974.61,4.20,0.31,1.19,25.50,-30.90,22.20,19.07,03/22/2020,00:00:14.900,0,0,0,0,0,0,0,9999,9.435,
01/01/2000,00:00:16.06,-54.20,-19.53,-966.80,4.24,-1.86,0.50,26.85,-29.25,20.70,19.21,03/22/2020,00:00:15.000,0,0,0,0,0,0,0,9999,9.440,
01/01/2000,00:00:16.16,-62.50,-19.53,-974.12,2.82,0.07,0.98,27.15,-31.05,19.95,19.07,03/22/2020,00:00:15.100,0,0,0,0,0,0,0,9999,9.444,
01/01/2000,00:00:16.26,-68.36,-22.95,-981.45,0.80,0.50,-0.39,27.30,-30.15,20.40,19.26,03/22/2020,00:00:15.200,0,0,0,0,0,0,0,9999,9.448,
01/01/2000,00:00:16.36,-59.08,-1.95,-970.21,1.11,0.98,-0.88,24.60,-30.60,23.40,19.26,03/22/2020,00:00:15.300,0,0,0,0,0,0,0,9999,9.452,
01/01/2000,00:00:16.46,-68.36,-29.79,-974.12,0.43,0.50,2.31,27.0,-31.65,20.85,19.45,03/22/2020,00:00:15.400,0,0,0,0,0,0,0,9999,9.456,
01/01/2000,00:00:16.56,-56.15,-19.53,-969.73,1.78,-0.79,-0.10,26.40,-29.85,19.95,19.26,03/22/2020,00:00:15.500,0,0,0,0,0,0,0,9999,9.460,
01/01/2000,00:00:16.66,-60.06,-13.67,-974.12,0.65,-2.47,0.21,27.15,-29.85,21.30,19.21,03/22/2020,00:00:15.600,0,0,0,0,0,0,0,9999,9.464,
01/01/2000,00:00:16.76,-50.78,-18.55,-950.20,2.53,0.73,-1.09,25.35,-31.80,22.80,19.21,03/22/2020,00:00:15.700,0,0,0,0,0,0,0,9999,9.468,
01/01/2000,00:00:16.86,-60.06,-13.18,-978.03,4.21,0.59,0.81,28.50,-30.15,21.15,19.36,03/22/2020,00:00:15.800,0,0,0,0,0,0,0,9999,9.472,
01/01/2000,00:00:16.96,-61.04,-2.44,-970.21,3.24,0.22,-0.03,24.90,-32.40,24.0,19.12,03/22/2020,00:00:15.900,0,0,0,0,0,0,0,9999,9.483,
01/01/2000,00:00:17.06,-44.43,-16.60,-977.05,2.19,1.65,-0.64,25.35,-32.85,24.15,19.40,03/22/2020,00:00:16.000,0,0,0,0,0,0,0,9999,9.466,
01/01/2000,00:00:17.16,-51.27,-26.86,-961.43,1.35,0.01,1.66,26.85,-29.85,21.0,19.21,03/22/2020,00:00:16.100,0,0,0,0,0,0,0,9999,9.483,
01/01/2000,00:00:17.26,-65.43,-23.44,-964.84,3.96,-0.81,1.03,27.30,-29.70,20.85,19.36,03/22/2020,00:00:16.200,0,0,0,0,0,0,0,9999,9.487,
01/01/2000,00:00:17.36,-55.18,-20.51,-978.03,1.76,-0.79,1.53,27.60,-29.85,21.0,19.40,03/22/2020,00:00:16.300,0,0,0,0,0,0,0,9999,9.491,
01/01/2000,00:00:17.46,-59.08,-22.95,-984.86,2.34,1.85,1.0,24.15,-33.90,25.35,19.26,03/22/2020,00:00:16.400,0,0,0,0,0,0,0,9999,9.494,
01/01/2000,00:00:17.56,-60.55,-30.76,-962.40,3.36,-1.11,0.05,25.05,-31.35,21.75,19.40,03/22/2020,00:00:16.500,0,0,0,0,0,0,0,9999,9.498,
01/01/2000,00:00:17.66,-48.34,-35.16,-959.47,3.39,0.0,2.05,24.90,-31.65,22.65,19.40,03/22/2020,00:00:16.600,0,0,0,0,0,0,0,9999,9.501,
01/01/2000,00:00:17.76,-66.41,-21.00,-967.29,3.62,-0.10,1.25,27.60,-30.30,21.30,19.45,03/22/2020,00:00:16.700,0,0,0,0,0,0,0,9999,9.504,
01/01/2000,00:00:17.86,-63.96,-17.09,-972.66,1.34,-0.76,1.48,26.25,-31.95,22.20,19.45,03/22/2020,00:00:16.800,0,0,0,0,0,0,0,9999,9.514,
01/01/2000,00:00:17.96,-49.32,-18.55,-979.98,1.04,0.15,-3.37,27.0,-29.40,20.40,19.26,03/22/2020,00:00:16.900,0,0,0,0,0,0,0,9999,9.517,
01/01/2000,00:00:18.06,-50.29,-22.95,-974.12,3.44,0.84,1.79,27.60,-31.05,19.50,19.64,03/22/2020,00:00:17.000,0,0,0,0,0,0,0,9999,9.502,
01/01/2000,00:00:18.17,-56.64,-23.44,-957.52,2.79,0.59,0.17,27.15,-29.55,20.25,19.40,03/22/2020,00:00:17.100,0,0,0,0,0,0,0,9999,9.518,
01/01/2000,00:00:18.27,-52.73,-21.97,-968.75,1.85,0.40,-2.39,25.50,-30.90,22.20,19.40,03/22/2020,00:00:17.200,0,0,0,0,0,0,0,9999,9.521,
01/01/2000,00:00:18.37,-63.48,-21.00,-970.21,1.56,-1.92,0.95,28.20,-29.85,21.75,19.40,03/22/2020,00:00:17.300,0,0,0,0,0,0,0,9999,9.524,
01/01/2000,00:00:18.47,-53.71,-16.60,-969.73,0.31,1.26,-0.12,26.70,-30.15,21.45,19.36,03/22/2020,00:00:17.400,0,0,0,0,0,0,0,9999,9.527,
01/01/2000,00:00:18.56,-43.46,-20.51,-972.66,2.36,-0.30,-1.70,27.60,-29.85,20.70,19.64,03/22/2020,00:00:17.500,0,0,0,0,0,0,0,9999,9.530,
01/01/2000,00:00:18.66,-47.36,-13.67,-969.73,2.0,1.60,2.23,25.80,-31.80,21.75,19.36,03/22/2020,00:00:17.600,0,0,0,0,0,0,0,9999,9.533,
01/01/2000,00:00:18.76,-62.50,-14.65,-977.54,0.27,0.30,0.11,24.0,-32.55,23.85,19.55,03/22/2020,00:00:17.700,0,0,0,0,0,0,0,9999,9.536,
01/01/2000,00:00:18.86,-53.71,-18.07,-960.94,2.56,-1.05,3.23,26.10,-30.60,23.85,19.21,03/22/2020,00:00:17.800,0,0,0,0,0,0,0,9999,9.539,
01/01/2000,00:00:18.96,-64.45,-18.07,-977.54,3.44,-1.78,-2.28,25.95,-30.90,22.20,19.40,03/22/2020,00:00:17.900,0,0,0,0,0,0,0,9999,9.542,
01/01/2000,00:00:19.06,-60.06,-21.00,-964.84,4.81,-1.01,-2.0,26.40,-28.80,20.25,19.45,03/22/2020,00:00:18.000,0,0,0,0,0,0,0,9999,9.545,
01/01/2000,00:00:19.16,-55.66,-15.63,-983.40,0.96,-0.01,-1.13,26.40,-29.25,21.30,19.45,03/22/2020,00:00:18.100,0,0,0,0,0,0,0,9999,9.547,
01/01/2000,00:00:19.26,-62.01,-16.60,-969.73,0.31,0.27,-0.25,26.85,-30.60,20.25,19.55,03/22/2020,00:00:18.200,0,0,0,0,0,0,0,9999,9.550,
01/01/2000,00:00:19.36,-69.82,-11.23,-976.07,4.74,-0.50,0.83,26.10,-31.80,23.85,19.79,03/22/2020,00:00:18.300,0,0,0,0,0,0,0,9999,9.553,
01/01/2000,00:00:19.46,-55.66,-15.63,-958.50,0.44,1.35,-0.85,26.10,-32.10,22.05,19.64,03/22/2020,00:00:18.400,0,0,0,0,0,0,0,9999,9.556,
01/01/2000,00:00:19.56,-61.04,-13.67,-970.21,1.64,-0.73,-0.65,27.15,-30.30,20.70,19.07,03/22/2020,00:00:18.500,0,0,0,0,0,0,0,9999,9.564,
01/01/2000,00:00:19.66,-45.90,-19.53,-970.70,0.0,-0.69,-5.28,26.85,-29.85,21.30,19.36,03/22/2020,00:00:18.600,0,0,0,0,0,0,0,9999,9.567,
01/01/2000,00:00:19.76,-51.27,-20.02,-967.29,1.33,1.54,0.49,25.80,-30.60,22.35,19.40,03/22/2020,00:00:18.700,0,0,0,0,0,0,0,9999,9.569,
01/01/2000,00:00:19.86,-48.83,-23.44,-968.26,5.15,1.58,1.68,26.40,-30.60,21.0,19.64,03/22/2020,00:00:18.800,0,0,0,0,0,0,0,9999,9.555,
01/01/2000,00:00:19.96,-49.80,-28.32,-964.84,1.16,-0.81,-0.38,27.30,-31.20,21.45,19.55,03/22/2020,00:00:18.900,0,0,0,0,0,0,0,9999,9.569,
01/01/2000,00:00:20.06,-43.46,-24.41,-966.80,1.19,-0.43,1.31,25.20,-32.70,23.25,19.60,03/22/2020,00:00:19.000,0,0,0,0,0,0,0,9999,9.571,
01/01/2000,00:00:20.16,-51.27,-27.34,-977.54,-0.07,-0.84,1.44,25.20,-32.40,22.95,19.74,03/22/2020,00:00:19.100,0,0,0,0,0,0,0,9999,9.574,
01/01/2000,00:00:20.26,-46.39,-23.93,-950.20,3.32,0.95,2.21,27.75,-30.45,20.40,19.36,03/22/2020,00:00:19.200,0,0,0,0,0,0,0,9999,9.576,
01/01/2000,00:00:20.36,-67.38,-33.69,-966.31,0.76,-1.40,0.92,27.75,-30.45,19.80,19.60,03/22/2020,00:00:19.300,0,0,0,0,0,0,0,9999,9.579,
01/01/2000,00:00:20.46,-65.92,-28.81,-968.75,1.15,0.74,-0.35,25.05,-31.80,22.80,19.40,03/22/2020,00:00:19.400,0,0,0,0,0,0,0,9999,9.581,
01/01/2000,00:00:20.56,-53.22,-18.07,-973.14,1.82,-1.98,1.76,25.80,-32.85,23.10,19.64,03/22/2020,00:00:19.500,0,0,0,0,0,0,0,9999,9.584,
01/01/2000,00:00:20.66,-41.02,-17.09,-959.96,1.34,0.24,1.31,25.50,-31.95,22.20,19.74,03/22/2020,00:00:19.600,0,0,0,0,0,0,0,9999,9.586,
01/01/2000,00:00:20.76,-59.57,-3.91,-979.00,1.76,0.33,2.96,26.70,-31.65,20.85,19.74,03/22/2020,00:00:19.700,0,0,0,0,0,0,0,9999,9.588,
01/01/2000,00:00:20.86,-60.55,-20.02,-965.82,1.98,0.26,-0.40,25.20,-31.95,23.25,19.88,03/22/2020,00:00:19.800,0,0,0,0,0,0,0,9999,9.591,
01/01/2000,00:00:20.96,-52.73,-13.18,-962.89,5.01,-0.72,-0.20,27.15,-31.05,19.50,19.64,03/22/2020,00:00:19.900,0,0,0,0,0,0,0,9999,9.593,
01/01/2000,00:00:21.06,-61.52,-7.81,-969.24,4.60,0.05,-2.54,26.40,-29.85,21.30,19.64,03/22/2020,00:00:20.000,0,0,0,0,0,0,0,9999,9.584,
01/01/2000,00:00:21.17,-63.48,-13.67,-968.26,1.64,1.04,-0.78,28.05,-30.45,21.15,19.64,03/22/2020,00:00:20.100,0,0,0,0,0,0,0,9999,9.597,
01/01/2000,00:00:21.27,-67.87,-16.60,-976.56,3.60,0.20,1.89,26.10,-31.80,21.75,19.74,03/22/2020,00:00:20.200,0,0,0,0,0,0,0,9999,9.600,
01/01/2000,00:00:21.37,-53.22,-21.48,-972.17,2.30,-0.94,1.03,26.85,-30.60,21.30,19.93,03/22/2020,00:00:20.300,0,0,0,0,0,0,0,9999,9.602,
01/01/2000,00:00:21.47,-74.71,-6.84,-970.70,2.02,-0.66,-0.08,26.40,-29.85,19.50,19.45,03/22/2020,00:00:20.400,0,0,0,0,0,0,0,9999,9.604,
01/01/2000,00:00:21.57,-52.73,-13.18,-953.13,1.54,-1.76,2.0,25.80,-31.80,22.80,19.88,03/22/2020,00:00:20.500,0,0,0,0,0,0,0,9999,9.606,
01/01/2000,00:00:21.67,-45.90,-17.09,-976.56,2.62,2.34,-1.07,27.0,-29.70,19.80,19.79,03/22/2020,00:00:20.600,0,0,0,0,0,0,0,9999,9.608,
01/01/2000,00:00:21.76,-53.22,-15.63,-960.45,4.42,-0.37,0.79,24.15,-32.40,22.95,19.60,03/22/2020,00:00:20.700,0,0,0,0,0,0,0,9999,9.610,
01/01/2000,00:00:21.86,-66.41,-14.65,-969.24,3.73,-0.45,-0.50,24.30,-31.35,22.80,19.93,03/22/2020,00:00:20.800,0,0,0,0,0,0,0,9999,9.612,
01/01/2000,00:00:21.96,-50.29,-21.97,-960.94,3.97,1.18,0.48,24.90,-31.65,22.20,19.55,03/22/2020,00:00:20.900,0,0,0,0,0,0,0,9999,9.614,
01/01/2000,00:00:22.06,-54.69,-23.93,-971.19,2.36,-2.06,1.36,26.25,-30.90,21.45,19.88,03/22/2020,00:00:21.000,0,0,0,0,0,0,0,9999,9.616,
01/01/2000,00:00:22.16,-48.34,-22.46,-977.05,4.31,0.30,1.27,27.0,-29.40,21.45,19.79,03/22/2020,00:00:21.100,0,0,0,0,0,0,0,9999,9.618,
01/01/2000,00:00:22.26,-65.43,-26.86,-979.49,3.89,-0.58,1.98,26.40,-29.55,21.30,19.88,03/22/2020,00:00:21.200,0,0,0,0,0,0,0,9999,9.620,
01/01/2000,00:00:22.36,-47.85,-5.37,-962.40,4.22,-1.44,-1.20,24.90,-31.20,23.25,19.79,03/22/2020,00:00:21.300,0,0,0,0,0,0,0,9999,9.622,
01/01/2000,00:00:22.46,-68.85,-16.11,-960.45,3.95,0.46,1.73,25.95,-31.20,21.90,19.88,03/22/2020,00:00:21.400,0,0,0,0,0,0,0,9999,9.624,
01/01/2000,00:00:22.56,-55.66,-21.97,-981.45,2.14,-0.23,-0.44,27.30,-30.45,20.85,19.45,03/22/2020,00:00:21.500,0,0,0,0,0,0,0,9999,9.626,
01/01/2000,00:00:22.66,-51.27,-23.44,-966.31,5.23,-0.02,0.79,28.05,-30.90,20.10,19.93,03/22/2020,00:00:21.600,0,0,0,0,0,0,0,9999,9.628,
01/01/2000,00:00:22.76,-53.71,-38.09,-959.96,1.99,0.0,2.23,26.70,-32.40,21.90,19.64,03/22/2020,00:00:21.700,0,0,0,0,0,0,0,9999,9.635,
01/01/2000,00:00:22.86,-54.69,-22.95,-981.45,0.13,-0.27,-0.68,27.15,-31.05,21.30,19.74,03/22/2020,00:00:21.800,0,0,0,0,0,0,0,9999,9.637,
01/01/2000,00:00:22.96,-55.18,-11.72,-971.19,0.99,1.03,0.64,24.45,-31.95,22.20,19.93,03/22/2020,00:00:21.900,0,0,0,0,0,0,0,9999,9.639,
01/01/2000,00:00:23.06,-62.01,-23.44,-977.54,-1.81,-1.12,-0.80,24.60,-32.10,21.75,19.98,03/22/2020,00:00:22.000,0,0,0,0,0,0,0,9999,9.626,
01/01/2000,00:00:23.16,-53.22,-34.18,-981.93,0.74,0.53,-0.49,26.25,-30.15,21.15,19.93,03/22/2020,00:00:22.100,0,0,0,0,0,0,0,9999,9.637,
01/01/2000,00:00:23.26,-52.25,-14.65,-968.26,0.10,-1.44,-0.15,26.25,-30.90,20.40,20.07,03/22/2020,00:00:22.300,0,0,0,0,0,0,0,9999,9.587,
01/01/2000,00:00:23.46,-61.04,-21.48,-955.08,3.65,1.05,1.11,23.55,-32.85,25.20,19.74,03/22/2020,00:00:22.400,0,0,0,0,0,0,0,9999,9.594,
01/01/2000,00:00:23.56,-53.71,-10.74,-974.12,2.79,-0.40,-1.32,26.10,-31.35,22.35,19.98,03/22/2020,00:00:22.500,0,0,0,0,0,0,0,9999,9.596,
01/01/2000,00:00:23.66,-55.66,-12.70,-973.63,-1.31,-1.22,0.96,27.90,-30.60,19.95,19.79,03/22/2020,00:00:22.600,0,0,0,0,0,0,0,9999,9.598,
01/01/2000,00:00:23.76,-51.76,-23.44,-963.87,4.59,-1.31,0.59,26.25,-30.90,20.40,19.88,03/22/2020,00:00:22.700,0,0,0,0,0,0,0,9999,9.600,
01/01/2000,00:00:23.86,-59.08,-27.34,-977.54,1.35,1.79,0.75,27.75,-30.15,20.10,19.93,03/22/2020,00:00:22.800,0,0,0,0,0,0,0,9999,9.602,
01/01/2000,00:00:23.96,-52.73,-22.95,-975.59,5.0,-0.77,2.37,25.80,-31.80,22.80,19.74,03/22/2020,00:00:22.900,0,0,0,0,0,0,0,9999,9.603,
01/01/2000,00:00:24.06,-47.85,-7.81,-962.40,0.52,0.43,-0.09,25.20,-31.65,23.70,19.79,03/22/2020,00:00:23.000,0,0,0,0,0,0,0,9999,9.596,
01/01/2000,00:00:24.17,-60.06,-19.53,-975.10,-0.82,-3.20,1.11,27.0,-28.65,20.85,19.98,03/22/2020,00:00:23.100,0,0,0,0,0,0,0,9999,9.607,
01/01/2000,00:00:24.26,-51.27,-7.81,-958.50,3.05,-0.21,-0.68,27.0,-29.40,19.80,20.07,03/22/2020,00:00:23.200,0,0,0,0,0,0,0,9999,9.609,
01/01/2000,00:00:24.36,-54.69,-7.81,-977.05,2.84,2.52,-1.60,25.50,-31.20,22.95,19.88,03/22/2020,00:00:23.300,0,0,0,0,0,0,0,9999,9.611,
01/01/2000,00:00:24.46,-40.04,-22.95,-974.61,-0.16,-0.52,-1.07,26.25,-31.65,20.10,20.12,03/22/2020,00:00:23.400,0,0,0,0,0,0,0,9999,9.613,
01/01/2000,00:00:24.56,-48.83,-13.18,-968.26,2.96,-1.87,-2.52,27.90,-30.30,21.75,19.88,03/22/2020,00:00:23.500,0,0,0,0,0,0,0,9999,9.614,
01/01/2000,00:00:24.66,-52.25,-25.88,-976.56,0.51,-0.17,0.01,25.95,-32.70,22.95,20.17,03/22/2020,00:00:23.600,0,0,0,0,0,0,0,9999,9.616,
01/01/2000,00:00:24.76,-51.27,-21.00,-969.73,2.07,0.47,0.86,24.90,-31.20,21.90,20.17,03/22/2020,00:00:23.700,0,0,0,0,0,0,0,9999,9.618,
01/01/2000,00:00:24.86,-37.60,-17.58,-978.52,3.74,-0.63,2.15,27.75,-29.40,21.15,20.41,03/22/2020,00:00:23.800,0,0,0,0,0,0,0,9999,9.620,
01/01/2000,00:00:24.96,-55.66,-20.02,-963.87,3.15,-0.88,0.72,27.75,-30.90,20.40,19.98,03/22/2020,00:00:23.900,0,0,0,0,0,0,0,9999,9.622,
01/01/2000,00:00:25.06,-55.66,-18.55,-962.89,4.40,1.74,1.24,25.35,-30.60,23.85,19.93,03/22/2020,00:00:24.000,0,0,0,0,0,0,0,9999,9.623,
01/01/2000,00:00:25.16,-51.76,-15.63,-980.96,-0.65,1.23,-1.60,26.70,-30.15,21.15,20.07,03/22/2020,00:00:24.100,0,0,0,0,0,0,0,9999,9.625,
01/01/2000,00:00:25.26,-51.27,-24.90,-981.45,0.37,-0.53,-1.84,25.35,-30.60,22.80,19.93,03/22/2020,00:00:24.200,0,0,0,0,0,0,0,9999,9.627,
01/01/2000,00:00:25.36,-59.57,-22.46,-970.70,2.70,1.46,0.37,25.80,-31.35,22.05,20.17,03/22/2020,00:00:24.300,0,0,0,0,0,0,0,9999,9.633,
01/01/2000,00:00:25.46,-48.34,-24.41,-971.19,1.70,-0.90,3.24,25.05,-30.60,23.85,20.07,03/22/2020,00:00:24.400,0,0,0,0,0,0,0,9999,9.634,
01/01/2000,00:00:25.56,-72.75,-12.70,-977.05,0.47,-0.59,1.63,26.85,-30.60,21.0,19.98,03/22/2020,00:00:24.500,0,0,0,0,0,0,0,9999,9.623,
01/01/2000,00:00:25.66,-62.50,-11.23,-973.14,1.60,0.98,-1.38,26.85,-31.05,19.95,19.79,03/22/2020,00:00:24.600,0,0,0,0,0,0,0,9999,9.633,
01/01/2000,00:00:25.76,-45.41,-19.04,-973.63,2.48,0.92,-0.34,26.25,-30.45,19.80,20.27,03/22/2020,00:00:24.700,0,0,0,0,0,0,0,9999,9.635,
01/01/2000,00:00:25.86,-54.69,-9.77,-968.26,2.42,0.84,0.79,25.50,-31.20,22.95,19.93,03/22/2020,00:00:24.900,0,0,0,0,0,0,0,9999,9.590,
01/01/2000,00:00:26.05,-59.57,-20.02,-972.66,-0.19,1.25,2.43,27.75,-30.15,21.45,20.17,03/22/2020,00:00:25.000,0,0,0,0,0,0,0,9999,9.588,
01/01/2000,00:00:26.16,-63.48,-10.74,-965.82,1.50,-0.24,1.10,26.25,-31.95,21.45,20.17,03/22/2020,00:00:25.100,0,0,0,0,0,0,0,9999,9.602,
01/01/2000,00:00:26.26,-64.94,-18.07,-970.21,1.88,0.11,-0.62,25.05,-31.05,22.35,20.07,03/22/2020,00:00:25.200,0,0,0,0,0,0,0,9999,9.604,
01/01/2000,00:00:26.36,-41.50,1.95,-969.73,3.49,-0.53,1.18,26.85,-30.60,20.70,20.07,03/22/2020,00:00:25.300,0,0,0,0,0,0,0,9999,9.605,
01/01/2000,00:00:26.46,-58.59,-18.55,-966.80,4.94,2.06,0.05,25.80,-30.60,23.10,20.31,03/22/2020,00:00:25.400,0,0,0,0,0,0,0,9999,9.595,
01/01/2000,00:00:26.56,-53.71,-22.46,-969.73,-0.16,-0.38,1.68,26.40,-31.05,22.05,19.93,03/22/2020,00:00:25.500,0,0,0,0,0,0,0,9999,9.605,
01/01/2000,00:00:26.66,-55.66,-18.55,-976.07,0.01,0.76,2.37,25.35,-31.05,23.10,20.12,03/22/2020,00:00:25.600,0,0,0,0,0,0,0,9999,9.606,
01/01/2000,00:00:26.76,-56.64,-22.95,-968.26,2.85,0.04,3.82,26.25,-30.45,21.15,20.07,03/22/2020,00:00:25.700,0,0,0,0,0,0,0,9999,9.608,
01/01/2000,00:00:26.86,-50.78,-16.60,-975.59,2.15,-0.30,-0.33,28.50,-30.15,20.85,20.17,03/22/2020,00:00:25.800,0,0,0,0,0,0,0,9999,9.610,
01/01/2000,00:00:26.96,-50.29,-16.60,-969.24,3.96,0.49,2.43,26.70,-30.45,21.45,20.17,03/22/2020,00:00:25.900,0,0,0,0,0,0,0,9999,9.611,
01/01/2000,00:00:27.06,-58.59,-20.51,-968.75,1.87,0.78,1.53,23.55,-32.55,25.20,20.17,03/22/2020,00:00:26.000,0,0,0,0,0,0,0,9999,9.613,
01/01/2000,00:00:27.16,-58.11,-27.34,-955.57,3.64,-1.50,-0.26,25.50,-32.40,22.95,20.12,03/22/2020,00:00:26.100,0,0,0,0,0,0,0,9999,9.615,
01/01/2000,00:00:27.26,-51.27,-19.53,-971.68,1.48,0.61,0.40,28.20,-29.55,21.75,20.17,03/22/2020,00:00:26.200,0,0,0,0,0,0,0,9999,9.620,
01/01/2000,00:00:27.36,-50.29,-21.48,-971.19,2.0,-1.0,-1.90,27.75,-30.90,21.15,20.12,03/22/2020,00:00:26.300,0,0,0,0,0,0,0,9999,9.622,
01/01/2000,00:00:27.46,-55.66,-16.60,-969.24,0.49,-0.20,1.55,25.50,-30.90,23.70,20.17,03/22/2020,00:00:26.400,0,0,0,0,0,0,0,9999,9.623,
01/01/2000,00:00:27.56,-55.66,-33.20,-964.84,3.18,0.57,-0.99,27.30,-29.40,21.15,20.41,03/22/2020,00:00:26.500,0,0,0,0,0,0,0,9999,9.613,
01/01/2000,00:00:27.67,-50.29,-16.60,-968.26,3.42,-2.82,-1.01,27.15,-29.85,21.75,20.27,03/22/2020,00:00:26.600,0,0,0,0,0,0,0,9999,9.622,
01/01/2000,00:00:27.76,-62.50,-13.67,-961.43,3.97,0.56,0.09,24.30,-32.85,23.10,20.17,03/22/2020,00:00:26.700,0,0,0,0,0,0,0,9999,9.624,
01/01/2000,00:00:27.86,-63.96,-21.48,-968.75,3.69,-0.72,1.23,27.75,-29.70,21.15,20.27,03/22/2020,14:55:01.338,0,0,0,0,0,0,0,9999,9.625,
01/01/2000,00:00:27.96,-62.50,-19.04,-966.31,3.17,-0.65,-2.09,28.20,-29.25,21.30,19.93,03/25/2020,14:55:01.438,0,0,0,0,0,0,0,9999,9.627,
01/01/2000,00:00:28.06,-57.62,-19.53,-971.19,2.50,0.17,3.09,27.30,-30.45,19.35,19.93,03/25/2020,14:55:01.538,0,0,0,0,0,0,0,9999,9.628,
01/01/2000,00:00:28.16,-60.06,-21.00,-969.73,1.80,2.95,-0.25,25.05,-31.35,23.10,20.31,03/25/2020,14:55:01.600,0,0,0,0,0,0,0,9999,9.634,
01/01/2000,00:00:28.26,-47.36,-21.48,-965.33,0.49,-0.63,1.28,25.20,-33.15,22.95,20.17,03/25/2020,14:55:01.700,0,0,0,0,0,0,0,9999,9.643,
01/01/2000,00:00:28.36,-56.64,-15.63,-964.36,1.90,-0.73,1.67,26.85,-30.60,21.30,19.98,03/25/2020,14:55:01.800,0,0,0,0,0,0,0,9999,9.644,
01/01/2000,00:00:28.46,-51.76,-6.35,-967.77,2.40,-1.63,1.34,26.40,-29.85,21.30,20.41,03/25/2020,14:55:01.900,0,0,0,0,0,0,0,9999,9.646,
01/01/2000,00:00:28.56,-45.41,-14.16,-983.89,3.11,-0.15,-0.97,27.60,-31.05,21.0,20.12,03/25/2020,14:55:02.000,0,0,0,0,0,0,0,9999,9.647,
01/01/2000,00:00:28.66,-53.22,-32.23,-973.63,2.58,0.52,2.27,27.0,-28.95,22.20,20.27,03/25/2020,14:55:02.100,0,0,0,0,0,0,0,9999,9.648,
01/01/2000,00:00:28.76,-59.08,-9.28,-975.59,3.36,-2.60,-2.12,27.15,-29.25,22.35,20.27,03/25/2020,14:55:02.200,0,0,0,0,0,0,0,9999,9.650,
01/01/2000,00:00:28.86,-56.64,-15.14,-963.87,4.05,-1.63,-1.34,26.40,-29.85,21.75,20.41,03/25/2020,14:55:02.300,0,0,0,0,0,0,0,9999,9.651,
01/01/2000,00:00:28.96,-64.45,-22.95,-970.21,4.33,1.06,0.46,28.50,-30.45,21.15,20.31,03/25/2020,14:55:02.400,0,0,0,0,0,0,0,9999,9.653,
01/01/2000,00:00:29.06,-53.22,-26.86,-971.19,2.89,-1.66,0.83,27.60,-30.60,21.30,20.46,03/25/2020,14:55:02.500,0,0,0,0,0,0,0,9999,9.654,
01/01/2000,00:00:29.16,-34.18,-25.88,-948.24,3.08,-1.21,1.41,26.85,-30.30,21.30,20.27,03/25/2020,14:55:02.600,0,0,0,0,0,0,0,9999,9.655,
01/01/2000,00:00:29.26,-44.92,-22.46,-973.63,2.21,1.72,-0.82,25.50,-31.95,22.65,20.27,03/25/2020,14:55:02.700,0,0,0,0,0,0,0,9999,9.656,
01/01/2000,00:00:29.36,-61.04,-18.55,-979.49,0.89,-1.40,0.63,27.0,-30.90,20.10,20.31,03/25/2020,14:55:02.800,0,0,0,0,0,0,0,9999,9.658,
01/01/2000,00:00:29.45,-56.64,-15.63,-975.10,2.54,-1.51,1.77,27.15,-31.35,21.30,20.17,03/25/2020,14:55:02.900,0,0,0,0,0,0,0,9999,9.659,
01/01/2000,00:00:29.55,-51.27,-13.67,-967.77,3.07,0.45,0.37,25.20,-29.70,21.45,20.31,03/25/2020,14:55:03.000,0,0,0,0,0,0,0,9999,9.664,
01/01/2000,00:00:29.65,-62.50,-7.81,-961.43,0.89,-0.80,2.90,27.60,-30.60,21.0,20.41,03/25/2020,14:55:03.100,0,0,0,0,0,0,0,9999,9.665,
01/01/2000,00:00:29.75,-60.06,-28.32,-960.45,0.97,0.31,1.50,26.85,-30.30,21.30,20.41,03/25/2020,14:55:03.200,0,0,0,0,0,0,0,9999,9.667,
01/01/2000,00:00:29.85,-58.59,-22.95,-976.07,0.27,-0.40,1.53,27.0,-30.15,20.40,20.46,03/25/2020,14:55:03.300,0,0,0,0,0,0,0,9999,9.668,
01/01/2000,00:00:29.95,-53.22,-29.30,-968.26,3.05,-1.41,2.52,27.30,-30.45,20.85,20.46,03/25/2020,14:55:03.400,0,0,0,0,0,0,0,9999,9.669,
01/01/2000,00:00:30.05,-47.85,-18.07,-966.80,2.78,0.45,3.18,26.25,-30.15,20.85,20.17,03/25/2020,14:55:03.500,0,0,0,0,0,0,0,9999,9.670,
01/01/2000,00:00:30.15,-62.50,-15.14,-969.73,3.20,-1.09,0.25,26.85,-30.30,20.25,20.51,03/25/2020,14:55:03.600,0,0,0,0,0,0,0,9999,9.671,
01/01/2000,00:00:30.25,-45.90,-28.32,-975.59,0.07,1.90,2.06,27.30,-30.45,19.35,20.41,03/25/2020,14:55:03.700,0,0,0,0,0,0,0,9999,9.673,
01/01/2000,00:00:30.35,-59.08,-24.90,-961.91,3.44,0.26,-0.54,27.0,-31.65,20.85,20.46,03/25/2020,14:55:03.800,0,0,0,0,0,0,0,9999,9.674,
01/01/2000,00:00:30.45,-50.78,-2.44,-981.93,3.38,3.11,-1.25,26.40,-30.30,21.30,20.31,03/25/2020,14:55:03.900,0,0,0,0,0,0,0,9999,9.675,
01/01/2000,00:00:30.55,-39.06,-16.60,-958.98,3.65,-0.07,-0.05,26.10,-31.05,20.70,20.51,03/25/2020,14:55:04.000,0,0,0,0,0,0,0,9999,9.669,
01/01/2000,00:00:30.65,-49.32,-20.51,-961.43,2.46,-0.82,0.50,25.35,-31.35,22.35,20.41,03/25/2020,14:55:04.100,0,0,0,0,0,0,0,9999,9.677,
01/01/2000,00:00:30.75,-54.20,-21.97,-958.01,1.61,0.02,1.28,26.25,-31.20,21.45,20.12,03/25/2020,14:55:04.200,0,0,0,0,0,0,0,9999,9.679,
01/01/2000,00:00:30.85,-54.69,-28.81,-965.33,3.48,-3.06,-1.36,27.60,-30.30,20.25,20.41,03/25/2020,14:55:04.300,0,0,0,0,0,0,0,9999,9.680,
01/01/2000,00:00:30.95,-53.22,-36.13,-974.12,4.31,1.39,0.36,26.25,-30.45,21.45,20.46,03/25/2020,14:55:04.400,0,0,0,0,0,0,0,9999,9.674,
01/01/2000,00:00:31.04,-54.20,-5.37,-958.01,2.57,-1.39,2.85,25.95,-31.65,20.85,20.51,03/25/2020,14:55:04.500,0,0,0,0,0,0,0,9999,9.675,
01/01/2000,00:00:31.14,-44.43,-32.71,-971.68,-0.92,0.61,-0.21,25.80,-31.05,21.75,20.51,03/25/2020,14:55:04.600,0,0,0,0,0,0,0,9999,9.676,
01/01/2000,00:00:31.24,-55.66,-17.58,-966.80,0.82,2.15,0.85,24.15,-32.70,24.30,20.65,03/25/2020,14:55:04.700,0,0,0,0,0,0,0,9999,9.677,
01/01/2000,00:00:31.34,-42.97,-25.39,-967.29,0.08,1.95,-0.85,24.30,-31.80,24.15,20.41,03/25/2020,14:55:04.800,0,0,0,0,0,0,0,9999,9.679,
01/01/2000,00:00:31.44,-73.24,-12.70,-968.26,1.22,0.66,-0.95,26.25,-29.70,20.40,20.17,03/25/2020,14:55:04.900,0,0,0,0,0,0,0,9999,9.680,
01/01/2000,00:00:31.54,-57.13,-35.16,-958.98,3.84,1.43,-0.35,24.45,-31.65,22.95,20.27,03/25/2020,14:55:05.000,0,0,0,0,0,0,0,9999,9.681,
01/01/2000,00:00:31.64,-61.52,-6.35,-961.91,1.21,1.66,1.92,26.25,-30.90,21.45,20.46,03/25/2020,14:55:05.100,0,0,0,0,0,0,0,9999,9.682,
01/01/2000,00:00:31.74,-59.08,-14.65,-970.21,2.19,-3.02,0.11,27.60,-29.85,20.70,20.31,03/25/2020,14:55:05.200,0,0,0,0,0,0,0,9999,9.683,
01/01/2000,00:00:31.84,-44.92,-15.63,-959.47,3.88,-0.76,1.88,24.45,-31.95,24.0,20.41,03/25/2020,14:55:05.300,0,0,0,0,0,0,0,9999,9.684,
01/01/2000,00:00:31.94,-55.18,-25.88,-971.68,0.56,0.88,-0.80,25.80,-31.35,23.40,20.46,03/25/2020,14:55:05.400,0,0,0,0,0,0,0,9999,9.685,
01/01/2000,00:00:32.04,-55.66,-32.71,-970.70,3.05,0.56,-0.44,26.25,-30.15,20.10,20.51,03/25/2020,14:55:05.500,0,0,0,0,0,0,0,9999,9.686,
01/01/2000,00:00:32.14,-59.08,-19.53,-968.26,2.24,0.45,1.55,26.85,-31.05,19.95,20.60,03/25/2020,14:55:05.600,0,0,0,0,0,0,0,9999,9.691,
01/01/2000,00:00:32.24,-63.48,-22.46,-961.91,1.03,-3.15,0.76,24.45,-34.65,24.75,20.46,03/25/2020,14:55:05.700,0,0,0,0,0,0,0,9999,9.692,
01/01/2000,00:00:32.34,-47.85,-13.18,-974.12,0.47,-1.20,-0.40,27.15,-31.05,21.0,20.41,03/25/2020,14:55:05.800,0,0,0,0,0,0,0,9999,9.693,
01/01/2000,00:00:32.44,-54.20,-19.53,-957.03,6.27,-1.19,0.91,24.90,-31.65,22.95,20.94,03/25/2020,14:55:05.900,0,0,0,0,0,0,0,9999,9.694,
01/01/2000,00:00:32.54,-62.50,-25.39,-967.77,3.02,0.91,0.58,24.90,-32.40,22.65,20.46,03/25/2020,14:55:06.000,0,0,0,0,0,0,0,9999,9.695,
01/01/2000,00:00:32.64,-46.88,-29.79,-958.01,2.40,-0.44,0.66,24.90,-31.95,23.25,20.60,03/25/2020,14:55:06.100,0,0,0,0,0,0,0,9999,9.696,
01/01/2000,00:00:32.73,-70.31,-20.51,-974.61,4.73,-1.02,2.48,27.15,-30.30,21.30,20.46,03/25/2020,14:55:06.200,0,0,0,0,0,0,0,9999,9.697,
01/01/2000,00:00:32.83,-57.13,-24.90,-960.94,1.70,-0.02,2.07,28.20,-30.60,21.75,20.65,03/25/2020,14:55:06.300,0,0,0,0,0,0,0,9999,9.698,
01/01/2000,00:00:32.93,-54.20,-19.53,-975.10,1.98,-0.14,0.85,25.80,-31.05,18.45,20.65,03/25/2020,14:55:06.400,0,0,0,0,0,0,0,9999,9.699,
01/01/2000,00:00:33.03,-54.20,-29.30,-979.00,-0.40,1.34,-0.63,24.0,-30.60,23.85,20.60,03/25/2020,14:55:06.500,0,0,0,0,0,0,0,9999,9.700,
01/01/2000,00:00:33.13,-55.18,-16.60,-973.63,0.34,0.78,0.09,25.80,-32.10,22.35,20.70,03/25/2020,14:55:06.600,0,0,0,0,0,0,0,9999,9.701,
01/01/2000,00:00:33.23,-60.55,-9.28,-965.82,1.85,0.27,0.34,27.75,-28.95,20.85,20.46,03/25/2020,14:55:06.700,0,0,0,0,0,0,0,9999,9.702,
01/01/2000,00:00:33.33,-48.34,-16.11,-973.14,0.76,-1.58,1.21,26.70,-31.20,21.45,20.31,03/25/2020,14:55:06.800,0,0,0,0,0,0,0,9999,9.703,
01/01/2000,00:00:33.43,-55.66,-31.25,-972.66,2.02,0.53,-3.14,24.30,-31.35,23.40,20.84,03/25/2020,14:55:06.900,0,0,0,0,0,0,0,9999,9.704,
01/01/2000,00:00:33.53,-61.04,-35.16,-961.43,5.89,-0.18,1.30,27.15,-31.80,22.05,20.41,03/25/2020,14:55:07.000,0,0,0,0,0,0,0,9999,9.705,
01/01/2000,00:00:33.63,-42.97,-16.60,-959.96,0.57,-0.85,0.09,24.30,-32.85,25.65,20.41,03/25/2020,14:55:07.100,0,0,0,0,0,0,0,9999,9.706,
01/01/2000,00:00:33.73,-54.20,-7.32,-967.29,1.64,-0.40,-1.13,24.15,-31.20,24.0,20.17,03/25/2020,14:55:07.200,0,0,0,0,0,0,0,9999,9.707,
01/01/2000,00:00:33.83,-53.71,-16.11,-974.61,3.39,2.14,-0.77,27.0,-29.70,21.45,20.46,03/25/2020,14:55:07.300,0,0,0,0,0,0,0,9999,9.711,
01/01/2000,00:00:33.93,-56.15,-20.51,-968.26,2.84,-0.86,1.61,26.40,-29.85,21.75,20.94,03/25/2020,14:55:07.400,0,0,0,0,0,0,0,9999,9.712,
01/01/2000,00:00:34.03,-60.55,-9.77,-959.47,1.95,0.02,0.47,27.75,-30.90,20.10,20.65,03/25/2020,14:55:07.500,0,0,0,0,0,0,0,9999,9.713,
01/01/2000,00:00:34.13,-52.25,-26.86,-975.59,4.60,-1.40,-1.35,25.20,-31.20,22.65,20.60,03/25/2020,14:55:07.600,0,0,0,0,0,0,0,9999,9.714,
01/01/2000,00:00:34.23,-67.87,-16.11,-969.24,4.24,-0.37,1.79,24.90,-32.40,22.65,20.79,03/25/2020,14:55:07.700,0,0,0,0,0,0,0,9999,9.715,
01/01/2000,00:00:34.33,-63.96,-10.25,-967.77,4.11,-2.02,1.34,25.35,-32.10,23.85,20.51,03/25/2020,14:55:07.800,0,0,0,0,0,0,0,9999,9.716,
01/01/2000,00:00:34.42,-63.96,-29.30,-965.33,5.16,0.47,1.66,26.25,-30.45,20.85,20.70,03/25/2020,14:55:07.900,0,0,0,0,0,0,0,9999,9.716,
01/01/2000,00:00:34.52,-46.39,-24.41,-958.98,2.89,0.06,-0.15,25.05,-31.80,22.80,20.51,03/25/2020,14:55:08.000,0,0,0,0,0,0,0,9999,9.717,
01/01/2000,00:00:34.62,-63.96,-31.74,-991.21,0.43,-3.99,-4.63,27.30,-30.15,21.90,20.70,03/25/2020,14:55:08.100,0,0,0,0,0,0,0,9999,9.718,
01/01/2000,00:00:34.72,-57.62,-24.41,-967.77,2.74,-2.26,-0.76,26.25,-30.15,20.85,20.70,03/25/2020,14:55:08.200,0,0,0,0,0,0,0,9999,9.719,
01/01/2000,00:00:34.82,-62.99,-22.95,-979.00,2.32,-2.63,1.92,25.50,-31.65,22.95,20.70,03/25/2020,14:55:08.300,0,0,0,0,0,0,0,9999,9.720,
01/01/2000,00:00:34.92,-52.25,-11.72,-974.12,1.37,-1.25,-1.07,25.05,-31.80,23.40,20.94,03/25/2020,14:55:08.400,0,0,0,0,0,0,0,9999,9.721,
01/01/2000,00:00:35.02,-66.89,-28.81,-970.70,1.69,-0.85,2.15,27.0,-30.90,21.15,20.60,03/25/2020,14:55:08.500,0,0,0,0,0,0,0,9999,9.722,
01/01/2000,00:00:35.12,-51.76,-22.46,-975.59,1.63,-2.07,-4.48,26.70,-29.70,20.40,20.79,03/25/2020,14:55:08.700,0,0,0,0,0,0,0,9999,9.689,
01/01/2000,00:00:35.33,-55.18,-19.53,-968.26,0.98,-2.20,-0.45,27.30,-30.15,21.15,20.41,03/25/2020,14:55:08.800,0,0,0,0,0,0,0,9999,9.693,
01/01/2000,00:00:35.43,-41.02,-23.93,-970.70,2.76,-1.08,1.85,25.05,-31.80,22.05,20.60,03/25/2020,14:55:08.900,0,0,0,0,0,0,0,9999,9.694,
01/01/2000,00:00:35.53,-52.73,-10.25,-968.26,2.91,-0.77,-0.40,26.25,-30.90,20.40,20.70,03/25/2020,14:55:09.000,0,0,0,0,0,0,0,9999,9.695,
01/01/2000,00:00:35.63,-32.23,-19.53,-961.91,2.54,1.88,1.08,27.15,-29.25,20.25,20.70,03/25/2020,14:55:09.100,0,0,0,0,0,0,0,9999,9.696,
01/01/2000,00:00:35.73,-50.78,-20.02,-968.26,2.31,0.05,-1.77,25.05,-32.55,22.35,20.46,03/25/2020,14:55:09.200,0,0,0,0,0,0,0,9999,9.697,
01/01/2000,00:00:35.82,-60.55,-14.65,-968.26,1.92,-2.19,-2.45,26.85,-29.85,21.75,20.79,03/25/2020,14:55:09.300,0,0,0,0,0,0,0,9999,9.698,
01/01/2000,00:00:35.92,-58.59,-27.83,-959.47,1.34,-0.69,-3.10,25.50,-30.45,21.90,20.70,03/25/2020,14:55:09.400,0,0,0,0,0,0,0,9999,9.699,
01/01/2000,00:00:36.02,-54.69,-6.84,-962.89,3.48,1.46,0.79,24.45,-29.70,23.25,20.65,03/25/2020,14:55:09.500,0,0,0,0,0,0,0,9999,9.700,
01/01/2000,00:00:36.12,-62.50,-22.95,-973.63,1.47,0.43,-0.77,25.35,-31.80,21.75,20.65,03/25/2020,14:55:09.600,0,0,0,0,0,0,0,9999,9.701,
01/01/2000,00:00:36.22,-52.25,-24.41,-959.96,1.77,-0.51,1.27,26.10,-31.35,20.25,20.60,03/25/2020,14:55:09.700,0,0,0,0,0,0,0,9999,9.702,
01/01/2000,00:00:36.32,-55.66,-21.97,-967.77,4.98,2.73,-0.06,27.75,-30.90,21.45,20.46,03/25/2020,14:55:09.800,0,0,0,0,0,0,0,9999,9.703,
01/01/2000,00:00:36.42,-58.11,-11.23,-966.31,1.37,-0.66,-1.78,25.50,-30.90,22.65,20.99,03/25/2020,14:55:09.900,0,0,0,0,0,0,0,9999,9.704,
01/01/2000,00:00:36.52,-58.59,-21.00,-969.73,2.0,-0.44,-0.82,26.10,-31.35,23.85,20.84,03/25/2020,14:55:10.000,0,0,0,0,0,0,0,9999,9.699,
01/01/2000,00:00:36.63,-57.13,-23.93,-971.19,0.94,0.22,2.04,26.25,-30.15,21.45,20.84,03/25/2020,14:55:10.100,0,0,0,0,0,0,0,9999,9.705,
01/01/2000,00:00:36.73,-60.55,-16.60,-964.84,1.95,-0.35,-1.15,27.30,-29.70,21.15,20.84,03/25/2020,14:55:10.200,0,0,0,0,0,0,0,9999,9.706,
01/01/2000,00:00:36.83,-57.13,-25.88,-958.01,2.65,-0.15,3.58,25.20,-32.40,22.65,20.70,03/25/2020,14:55:10.400,0,0,0,0,0,0,0,9999,9.673,
01/01/2000,00:00:37.03,-54.69,-25.88,-978.52,3.54,-1.56,-0.90,26.85,-30.60,21.75,20.70,03/25/2020,14:55:10.500,0,0,0,0,0,0,0,9999,9.679,
01/01/2000,00:00:37.12,-59.57,-22.46,-978.03,3.18,-0.88,1.36,25.35,-31.35,22.80,20.94,03/25/2020,14:55:10.600,0,0,0,0,0,0,0,9999,9.680,
01/01/2000,00:00:37.22,-52.73,-22.46,-964.84,2.10,0.21,-0.34,26.85,-31.05,19.95,20.51,03/25/2020,14:55:10.700,0,0,0,0,0,0,0,9999,9.681,
01/01/2000,00:00:37.32,-54.69,-11.72,-983.89,1.89,2.15,1.09,24.90,-30.45,22.95,20.70,03/25/2020,14:55:10.800,0,0,0,0,0,0,0,9999,9.682,
01/01/2000,00:00:37.42,-49.80,-28.32,-965.82,3.77,0.18,1.76,25.95,-28.95,22.20,20.60,03/25/2020,14:55:10.900,0,0,0,0,0,0,0,9999,9.683,
01/01/2000,00:00:37.52,-47.85,-30.27,-963.87,2.06,-0.64,-2.55,26.85,-30.60,21.0,20.51,03/25/2020,14:55:11.000,0,0,0,0,0,0,0,9999,9.678,
01/01/2000,00:00:37.63,-58.11,-10.74,-969.73,6.77,2.35,4.32,25.95,-30.90,21.45,20.79,03/25/2020,14:55:11.100,0,0,0,0,0,0,0,9999,9.682,
01/01/2000,00:00:37.73,-68.85,-25.88,-976.07,3.09,0.72,1.20,25.35,-32.55,22.35,20.70,03/25/2020,14:55:11.200,0,0,0,0,0,0,0,9999,9.683,
01/01/2000,00:00:37.83,-60.06,-7.81,-960.94,2.60,-0.27,-0.03,27.15,-30.30,20.70,20.60,03/25/2020,14:55:11.300,0,0,0,0,0,0,0,9999,9.684,
01/01/2000,00:00:37.93,-59.08,-21.00,-973.63,3.05,0.10,0.04,27.15,-30.30,19.95,20.46,03/25/2020,14:55:11.400,0,0,0,0,0,0,0,9999,9.685,
01/01/2000,00:00:38.03,-58.59,-16.60,-962.40,1.81,-3.35,1.73,25.80,-32.10,22.80,20.79,03/25/2020,14:55:11.500,0,0,0,0,0,0,0,9999,9.686,
01/01/2000,00:00:38.13,-63.96,-18.07,-970.21,2.59,-1.43,-0.05,27.0,-31.65,20.85,20.46,03/25/2020,14:55:11.600,0,0,0,0,0,0,0,9999,9.687,
01/01/2000,00:00:38.23,-53.22,-23.44,-945.31,0.81,1.90,0.69,24.90,-32.40,22.65,20.94,03/25/2020,14:55:11.700,0,0,0,0,0,0,0,9999,9.688,
01/01/2000,00:00:38.33,-52.73,-34.18,-974.12,1.82,0.58,-0.15,24.15,-31.95,23.70,20.51,03/25/2020,14:55:11.800,0,0,0,0,0,0,0,9999,9.688,
01/01/2000,00:00:38.43,-72.27,-34.18,-975.59,-0.66,0.76,1.11,25.20,-31.65,22.65,20.60,03/25/2020,14:55:11.900,0,0,0,0,0,0,0,9999,9.692,
01/01/2000,00:00:38.53,-60.06,-24.90,-967.29,4.50,-3.34,2.21,27.60,-29.85,21.75,20.84,03/25/2020,14:55:12.000,0,0,0,0,0,0,0,9999,9.693,
01/01/2000,00:00:38.63,-47.36,-18.55,-977.54,-0.44,-1.42,2.37,27.30,-30.90,21.15,20.94,03/25/2020,14:55:12.100,0,0,0,0,0,0,0,9999,9.694,
01/01/2000,00:00:38.73,-61.04,-15.14,-968.75,2.14,0.24,-1.69,26.40,-31.35,20.70,20.99,03/25/2020,14:55:12.200,0,0,0,0,0,0,0,9999,9.695,
01/01/2000,00:00:38.83,-52.73,-15.63,-960.94,2.56,0.22,0.67,23.70,-33.45,24.75,20.51,03/25/2020,14:55:12.300,0,0,0,0,0,0,0,9999,9.695,
01/01/2000,00:00:38.93,-62.01,-12.70,-966.80,4.66,-0.85,1.11,26.70,-30.45,23.70,20.70,03/25/2020,14:55:12.400,0,0,0,0,0,0,0,9999,9.696,
01/01/2000,00:00:39.02,-64.45,-29.79,-969.73,1.50,0.85,-0.62,27.15,-30.30,22.05,20.84,03/25/2020,14:55:12.500,0,0,0,0,0,0,0,9999,9.697,
01/01/2000,00:00:39.12,-60.55,-11.23,-981.45,-0.24,-0.29,1.73,26.85,-30.30,21.0,20.70,03/25/2020,14:55:12.600,0,0,0,0,0,0,0,9999,9.698,
01/01/2000,00:00:39.22,-54.20,-20.02,-975.59,3.10,-3.77,3.76,25.80,-31.80,22.35,20.94,03/25/2020,14:55:12.700,0,0,0,0,0,0,0,9999,9.699,
01/01/2000,00:00:39.32,-62.99,-14.65,-972.17,2.27,0.29,1.69,27.15,-29.25,21.30,20.99,03/25/2020,14:55:12.800,0,0,0,0,0,0,0,9999,9.700,
01/01/2000,00:00:39.42,-68.36,-27.34,-980.47,2.83,2.66,0.95,24.90,-31.20,22.95,20.94,03/25/2020,14:55:12.900,0,0,0,0,0,0,0,9999,9.700,
01/01/2000,00:00:39.52,-43.46,-8.79,-965.33,2.81,0.01,2.85,24.45,-31.65,24.30,20.94,03/25/2020,14:55:13.000,0,0,0,0,0,0,0,9999,9.696,
01/01/2000,00:00:39.63,-48.83,-31.25,-966.31,1.15,-0.98,0.89,25.95,-30.90,21.15,21.03,03/25/2020,14:55:13.100,0,0,0,0,0,0,0,9999,9.702,
01/01/2000,00:00:39.73,-51.27,-23.93,-961.43,2.64,-0.62,1.40,27.75,-30.90,20.85,21.03,03/25/2020,14:55:13.200,0,0,0,0,0,0,0,9999,9.703,
01/01/2000,00:00:39.82,-56.15,-13.67,-965.82,0.04,-2.0,-0.03,27.60,-29.25,20.70,20.94,03/25/2020,14:55:13.300,0,0,0,0,0,0,0,9999,9.704,
01/01/2000,00:00:39.92,-65.92,-18.07,-975.59,3.84,0.54,1.83,25.20,-30.90,22.65,21.03,03/25/2020,14:55:13.400,0,0,0,0,0,0,0,9999,9.705,
01/01/2000,00:00:40.02,-50.78,-21.97,-957.03,-2.09,-1.61,1.02,24.30,-32.10,23.10,21.18,03/25/2020,14:55:13.500,0,0,0,0,0,0,0,9999,9.705,
01/01/2000,00:00:40.12,-54.69,-19.53,-965.33,-0.50,0.14,-0.72,24.90,-31.95,23.25,20.99,03/25/2020,14:55:13.600,0,0,0,0,0,0,0,9999,9.706,
01/01/2000,00:00:40.22,-63.48,-16.60,-958.01,3.75,0.33,1.14,26.40,-30.30,21.75,21.03,03/25/2020,14:55:13.700,0,0,0,0,0,0,0,9999,9.707,
01/01/2000,00:00:40.32,-40.04,-16.60,-968.75,3.24,0.43,-1.62,27.0,-32.40,22.20,20.99,03/25/2020,14:55:13.800,0,0,0,0,0,0,0,9999,9.708,
01/01/2000,00:00:40.42,-60.55,-14.65,-967.77,1.04,-1.67,-1.16,27.30,-30.90,21.90,20.79,03/25/2020,14:55:13.900,0,0,0,0,0,0,0,9999,9.708,
01/01/2000,00:00:40.52,-50.29,-14.16,-961.91,4.03,0.05,1.58,27.30,-30.15,20.85,21.03,03/01/2023,14:55:14.000,0,0,0,0,0,0,0,9999,9.704,
01/01/2000,00:00:40.63,-63.48,-30.27,-958.01,4.20,-1.01,3.46,26.25,-30.15,21.90,20.79,03/01/2023,14:55:14.200,0,0,0,0,0,0,0,9999,9.679,
01/01/2000,00:00:40.83,-62.01,-22.46,-969.24,0.66,1.08,-1.89,27.60,-29.25,21.75,20.79,03/01/2023,14:55:14.300,0,0,0,0,0,0,0,9999,9.685,
01/01/2000,00:00:40.93,-56.64,-24.90,-972.17,4.47,-0.57,1.41,27.75,-30.45,20.85,20.94,03/01/2023,14:55:14.400,0,0,0,0,0,0,0,9999,9.686,
01/01/2000,00:00:41.03,-56.64,-17.58,-978.03,4.91,0.05,-0.44,27.90,-30.30,21.0,20.94,03/01/2023,14:55:14.500,0,0,0,0,0,0,0,9999,9.682,
01/01/2000,00:00:41.13,-66.89,-21.00,-959.96,2.09,1.26,-1.71,26.40,-30.30,21.30,21.13,03/01/2023,14:55:14.600,0,0,0,0,0,0,0,9999,9.688,
01/01/2000,00:00:41.22,-60.55,-21.48,-978.03,3.34,-1.26,-0.34,26.10,-31.05,22.35,21.03,03/01/2023,14:55:14.700,0,0,0,0,0,0,0,9999,9.688,
01/01/2000,00:00:41.32,-47.36,-6.84,-977.54,5.15,-0.82,-0.39,25.35,-31.05,23.40,20.99,03/01/2023,14:55:14.800,0,0,0,0,0,0,0,9999,9.689,
01/01/2000,00:00:41.42,-50.29,-26.37,-978.03,2.42,-0.38,1.29,26.70,-30.90,19.35,21.03,03/01/2023,14:55:14.900,0,0,0,0,0,0,0,9999,9.690,
01/01/2000,00:00:41.52,-48.34,-20.51,-976.07,0.19,1.38,-1.20,25.50,-31.65,21.90,21.03,03/01/2023,14:55:14.000,0,0,0,0,0,0,0,9999,9.691,
01/01/2000,00:00:41.62,-58.11,-21.48,-962.89,1.26,-0.63,-1.21,27.60,-31.35,21.30,21.03,03/01/2023,14:55:15.100,0,0,0,0,0,0,0,9999,9.692,
01/01/2000,00:00:41.72,-55.66,-32.23,-961.43,3.11,-1.52,-1.18,27.0,-30.45,21.15,20.84,03/01/2023,14:55:15.200,0,0,0,0,0,0,0,9999,9.692,
01/01/2000,00:00:41.82,-52.73,-21.00,-968.26,2.18,-0.70,-0.04,25.20,-31.95,24.0,21.13,03/01/2023,14:55:15.300,0,0,0,0,0,0,0,9999,9.693,
01/01/2000,00:00:41.92,-57.62,-22.46,-968.75,1.43,0.15,-1.12,24.90,-32.40,22.20,21.18,03/01/2023,14:55:15.400,0,0,0,0,0,0,0,9999,9.689,
01/01/2000,00:00:42.02,-62.01,-14.65,-967.77,4.54,-0.18,2.27,27.0,-30.90,21.15,21.03,03/01/2023,14:55:15.500,0,0,0,0,0,0,0,9999,9.695,
01/01/2000,00:00:42.12,-64.45,-24.90,-970.21,2.04,0.23,0.63,28.05,-31.65,21.45,21.13,03/01/2023,14:55:15.600,0,0,0,0,0,0,0,9999,9.696,
01/01/2000,00:00:42.22,-59.57,-29.30,-965.82,4.65,0.12,-1.81,26.85,-29.55,22.05,21.03,03/01/2023,14:55:15.700,0,0,0,0,0,0,0,9999,9.696,
01/01/2000,00:00:42.32,-60.06,-32.71,-973.14,2.08,1.05,1.93,24.90,-31.65,22.95,20.70,03/01/2023,14:55:15.800,0,0,0,0,0,0,0,9999,9.697,
01/01/2000,00:00:42.42,-45.41,-18.07,-965.33,4.0,-2.60,-0.63,25.50,-31.20,23.25,20.99,03/01/2023,14:55:15.900,0,0,0,0,0,0,0,9999,9.698,
01/01/2000,00:00:42.52,-52.25,-25.39,-976.07,4.40,-1.92,0.22,24.60,-31.05,22.35,20.79,03/01/2023,14:55:15.000,0,0,0,0,0,0,0,9999,9.694,
01/01/2000,00:00:42.63,-51.76,-23.44,-972.17,2.30,0.66,-1.76,27.30,-30.45,21.15,21.18,03/01/2023,14:55:16.100,0,0,0,0,0,0,0,9999,9.699,
01/01/2000,00:00:42.73,-51.76,-20.51,-972.17,2.72,-0.23,0.84,26.70,-30.45,21.90,21.32,03/01/2023,14:55:16.200,0,0,0,0,0,0,0,9999,9.700,
01/01/2000,00:00:42.83,-56.64,-19.53,-971.68,3.51,0.34,2.03,25.95,-30.15,20.40,20.79,03/01/2023,14:55:16.300,0,0,0,0,0,0,0,9999,9.701,
01/01/2000,00:00:42.92,-45.41,-22.46,-971.19,3.44,1.35,0.83,27.30,-30.90,21.15,20.99,03/01/2023,14:55:16.400,0,0,0,0,0,0,0,9999,9.702,
01/01/2000,00:00:43.02,-47.36,-29.79,-967.77,-1.60,0.11,2.85,25.35,-31.80,23.85,21.18,03/01/2023,14:55:16.500,0,0,0,0,0,0,0,9999,9.702,
01/01/2000,00:00:43.12,-60.55,-25.39,-963.87,1.73,1.54,-0.22,25.05,-31.80,22.80,21.13,03/01/2023,14:55:16.600,0,0,0,0,0,0,0,9999,9.703,
01/01/2000,00:00:43.22,-57.62,-26.86,-966.80,0.33,-0.86,0.56,25.05,-29.85,20.25,20.94,03/01/2023,14:55:16.700,0,0,0,0,0,0,0,9999,9.704,
01/01/2000,00:00:43.32,-55.66,-28.81,-972.17,0.87,-0.60,3.47,26.10,-29.25,20.70,20.94,03/01/2023,14:55:16.800,0,0,0,0,0,0,0,9999,9.705,
01/01/2000,00:00:43.42,-58.11,-25.39,-957.52,4.98,0.04,-1.83,26.10,-30.30,20.70,21.03,03/01/2023,14:55:16.900,0,0,0,0,0,0,0,9999,9.705,
01/01/2000,00:00:43.52,-52.73,-6.84,-974.61,3.29,-1.14,-1.36,26.25,-29.70,21.45,20.84,03/01/2023,14:55:16.000,0,0,0,0,0,0,0,9999,9.701,
01/01/2000,00:00:43.63,-61.04,-22.95,-972.17,2.25,-0.01,0.25,25.35,-32.55,23.40,21.03,03/01/2023,14:55:17.100,0,0,0,0,0,0,0,9999,9.704,
01/01/2000,00:00:43.73,-63.48,-18.55,-967.29,3.53,0.82,1.49,25.50,-30.15,23.70,21.22,03/01/2023,14:55:17.200,0,0,0,0,0,0,0,9999,9.705,
01/01/2000,00:00:43.83,-54.69,-21.48,-966.80,0.11,-2.45,-0.73,24.90,-31.20,22.95,20.84,03/01/2023,14:55:17.300,0,0,0,0,0,0,0,9999,9.706,
01/01/2000,00:00:43.93,-46.88,-18.55,-968.26,1.28,1.50,1.50,26.25,-31.65,20.10,21.22,03/01/2023,14:55:17.400,0,0,0,0,0,0,0,9999,9.707,
01/01/2000,00:00:44.03,-60.06,-26.37,-964.84,2.15,-1.14,0.06,26.40,-30.30,20.70,21.22,03/01/2023,14:55:17.500,0,0,0,0,0,0,0,9999,9.707,
01/01/2000,00:00:44.13,-62.50,-14.16,-973.14,4.02,0.46,1.08,24.15,-31.20,23.70,21.03,03/01/2023,14:55:17.600,0,0,0,0,0,0,0,9999,9.710,
01/01/2000,00:00:44.23,-46.39,-23.93,-981.93,3.08,-2.66,0.29,25.05,-31.80,23.40,21.13,03/01/2023,14:55:17.700,0,0,0,0,0,0,0,9999,9.711,
01/01/2000,00:00:44.33,-65.92,-20.02,-972.66,2.61,0.28,-0.51,25.05,-32.55,23.40,21.22,03/01/2023,14:55:17.800,0,0,0,0,0,0,0,9999,9.712,
01/01/2000,00:00:44.43,-46.39,-20.02,-972.66,3.89,0.02,0.53,26.70,-29.70,20.10,20.99,03/01/2023,14:55:17.900,0,0,0,0,0,0,0,9999,9.712,
01/01/2000,00:00:44.53,-56.15,-16.11,-969.73,-1.40,0.50,-0.95,24.60,-32.10,22.80,21.22,03/01/2023,14:55:17.000,0,0,0,0,0,0,0,9999,9.713,
01/01/2000,00:00:44.63,-59.08,-24.41,-971.68,3.58,-0.02,0.91,26.40,-31.35,22.05,21.32,03/01/2023,14:55:18.100,0,0,0,0,0,0,0,9999,9.714,
01/01/2000,00:00:44.72,-46.39,-23.93,-961.91,1.82,0.07,-0.55,26.25,-29.70,20.85,21.22,03/01/2023,14:55:18.200,0,0,0,0,0,0,0,9999,9.715,
01/01/2000,00:00:44.82,-61.52,-12.21,-971.19,1.76,-1.13,0.52,26.25,-31.20,21.90,21.32,03/01/2023,14:55:18.300,0,0,0,0,0,0,0,9999,9.715,
01/01/2000,00:00:44.92,-55.66,-24.90,-955.57,2.16,1.40,2.74,25.80,-32.10,24.15,21.22,03/01/2023,14:55:18.400,0,0,0,0,0,0,0,9999,9.716,
01/01/2000,00:00:45.02,-47.36,-26.37,-970.21,2.38,0.76,-0.42,28.80,-30.45,21.90,21.32,03/01/2023,14:55:18.500,0,0,0,0,0,0,0,9999,9.717,
01/01/2000,00:00:45.12,-57.13,-19.04,-964.36,1.92,-0.40,1.12,27.90,-30.60,21.30,21.32,03/01/2023,14:55:18.600,0,0,0,0,0,0,0,9999,9.717,
01/01/2000,00:00:45.22,-46.88,-23.44,-965.82,-0.16,2.92,-0.40,27.30,-30.45,21.15,21.22,03/01/2023,14:55:18.700,0,0,0,0,0,0,0,9999,9.718,
01/01/2000,00:00:45.32,-56.15,-20.02,-975.10,0.40,0.44,-0.10,25.20,-33.15,22.95,21.22,03/01/2023,14:55:18.800,0,0,0,0,0,0,0,9999,9.719,
01/01/2000,00:00:45.42,-58.11,-27.34,-958.01,-0.02,-1.17,0.33,25.20,-30.45,22.95,21.32,03/01/2023,14:55:18.900,0,0,0,0,0,0,0,9999,9.719,
01/01/2000,00:00:45.52,-44.92,-23.93,-970.21,4.19,-0.24,3.56,24.90,-32.40,24.0,21.18,03/01/2023,14:55:18.000,0,0,0,0,0,0,0,9999,9.715,
01/01/2000,00:00:45.62,-62.50,-27.34,-973.63,0.37,0.36,1.13,25.35,-28.80,19.50,21.32,03/01/2023,14:55:19.100,0,0,0,0,0,0,0,9999,9.721,
01/01/2000,00:00:45.72,-52.73,-24.41,-952.64,0.37,0.66,1.15,27.15,-31.05,19.95,21.32,03/01/2023,14:55:19.200,0,0,0,0,0,0,0,9999,9.721,
01/01/2000,00:00:45.82,-50.29,-25.39,-970.70,2.05,1.68,-2.05,27.60,-30.60,20.25,21.32,03/01/2023,14:55:19.300,0,0,0,0,0,0,0,9999,9.722,
01/01/2000,00:00:45.92,-54.69,-15.63,-970.21,-0.50,1.19,-0.44,27.60,-30.60,20.25,21.37,03/01/2023,14:55:19.400,0,0,0,0,0,0,0,9999,9.723,
01/01/2000,00:00:46.02,-52.73,-17.09,-964.84,1.89,-1.20,1.11,25.05,-31.35,22.80,21.37,03/01/2023,14:55:19.500,0,0,0,0,0,0,0,9999,9.723,
01/01/2000,00:00:46.12,-73.24,-15.63,-969.24,1.76,-0.68,1.59,25.35,-32.10,22.80,21.22,03/01/2023,14:55:19.600,0,0,0,0,0,0,0,9999,9.724,
01/01/2000,00:00:46.22,-55.18,-23.44,-967.77,4.27,1.11,2.14,27.0,-30.90,20.40,21.37,03/01/2023,14:55:19.700,0,0,0,0,0,0,0,9999,9.724,
01/01/2000,00:00:46.32,-52.73,-10.25,-974.12,0.22,-1.76,-0.72,26.25,-30.15,21.15,21.22,03/01/2023,14:55:19.800,0,0,0,0,0,0,0,9999,9.725,
01/01/2000,00:00:46.42,-57.13,-17.09,-977.05,2.48,-1.60,-1.02,25.35,-31.80,22.80,21.22,03/01/2023,14:55:19.900,0,0,0,0,0,0,0,9999,9.721,
01/01/2000,00:00:46.53,-61.04,-17.09,-960.94,1.46,2.18,0.47,28.95,-30.60,21.75,21.22,03/01/2023,14:55:19.900,0,0,0,0,0,0,0,9999,9.704,
01/01/2000,00:00:46.70,-59.08,-18.07,-976.07,2.50,-1.45,0.85,26.40,-31.05,20.25,21.32,03/01/2023,14:55:20.100,0,0,0,0,0,0,0,9999,9.705,
01/01/2000,00:00:46.81,-51.76,-34.18,-975.10,1.16,1.89,0.95,27.0,-30.15,21.15,21.37,03/01/2023,14:55:20.200,0,0,0,0,0,0,0,9999,9.703,
01/01/2000,00:00:46.91,-45.90,-21.00,-972.66,0.85,-0.89,1.70,25.95,-30.45,21.15,21.13,03/01/2023,14:55:20.300,0,0,0,0,0,0,0,9999,9.704,
01/01/2000,00:00:47.01,-72.27,-15.14,-976.07,1.81,0.15,1.88,26.85,-30.60,20.25,21.18,03/01/2023,14:55:20.400,0,0,0,0,0,0,0,9999,9.702,
01/01/2000,00:00:47.13,-54.69,-27.34,-972.66,2.76,-1.17,-0.98,27.30,-31.20,21.45,21.18,03/01/2023,14:55:20.500,0,0,0,0,0,0,0,9999,9.707,
01/01/2000,00:00:47.23,-55.66,-18.07,-969.73,2.51,-0.81,2.80,25.20,-31.95,22.95,21.32,03/01/2023,14:55:20.600,0,0,0,0,0,0,0,9999,9.708,
01/01/2000,00:00:47.32,-43.95,-26.86,-961.43,5.92,-1.58,-2.47,26.85,-29.55,21.0,21.37,03/01/2023,14:55:20.700,0,0,0,0,0,0,0,9999,9.709,
01/01/2000,00:00:47.42,-64.45,-10.25,-969.24,4.68,-2.57,2.44,26.70,-30.45,20.85,21.32,03/01/2023,14:55:20.800,0,0,0,0,0,0,0,9999,9.709,
01/01/2000,00:00:47.52,-52.25,-19.04,-962.40,1.60,-0.18,-0.21,27.0,-30.15,20.40,21.22,03/01/2023,14:55:20.900,0,0,0,0,0,0,0,9999,9.710,
01/01/2000,00:00:47.62,-52.73,-15.63,-977.05,2.46,-0.39,1.54,26.10,-31.35,23.10,21.32,03/01/2023,14:55:21.000,0,0,0,0,0,0,0,9999,9.711,
01/01/2000,00:00:47.72,-62.99,-20.02,-973.63,2.80,-0.85,-0.56,26.70,-31.20,21.90,21.18,03/01/2023,14:55:21.100,0,0,0,0,0,0,0,9999,9.711,
01/01/2000,00:00:47.82,-61.04,-29.79,-974.12,0.56,0.28,-4.12,24.0,-31.80,22.80,21.22,03/01/2023,14:55:21.200,0,0,0,0,0,0,0,9999,9.712,
01/01/2000,00:00:47.92,-43.46,-12.21,-956.54,3.21,1.58,0.21,26.70,-30.90,20.10,21.13,03/01/2023,14:55:21.300,0,0,0,0,0,0,0,9999,9.713,
01/01/2000,00:00:48.02,-62.99,-20.51,-974.61,1.53,0.12,-0.15,25.35,-31.35,22.05,21.32,03/01/2023,14:55:21.400,0,0,0,0,0,0,0,9999,9.713,
01/01/2000,00:00:48.12,-46.39,-22.95,-958.50,0.95,-1.37,2.52,26.25,-30.15,21.15,21.22,03/01/2023,14:55:21.500,0,0,0,0,0,0,0,9999,9.710,
01/01/2000,00:00:48.23,-52.73,-21.00,-965.82,3.06,0.61,0.27,26.40,-29.85,21.0,21.22,03/01/2023,14:55:21.600,0,0,0,0,0,0,0,9999,9.712,
01/01/2000,00:00:48.33,-67.38,-13.67,-977.54,3.54,-1.21,-0.96,26.10,-31.35,23.10,21.37,03/01/2023,14:55:21.700,0,0,0,0,0,0,0,9999,9.713,
01/01/2000,00:00:48.43,-53.71,-2.44,-970.21,2.02,-0.42,1.50,25.05,-32.10,23.85,21.22,03/01/2023,14:55:21.800,0,0,0,0,0,0,0,9999,9.716,
01/01/2000,00:00:48.53,-49.32,-17.58,-977.54,2.17,0.35,0.95,27.75,-30.45,21.15,21.22,03/01/2023,14:55:21.900,0,0,0,0,0,0,0,9999,9.716,
01/01/2000,00:00:48.63,-55.18,-17.09,-971.68,4.75,1.99,1.13,27.30,-30.45,20.85,21.37,03/01/2023,14:55:22.000,0,0,0,0,0,0,0,9999,9.717,
01/01/2000,00:00:48.73,-46.88,-16.11,-959.47,0.08,-0.93,0.11,24.60,-31.80,22.80,21.18,03/01/2023,14:55:22.100,0,0,0,0,0,0,0,9999,9.718,
01/01/2000,00:00:48.83,-49.32,-21.48,-954.10,1.84,-0.63,-4.08,26.25,-31.95,23.70,21.13,03/01/2023,14:55:22.200,0,0,0,0,0,0,0,9999,9.718,
01/01/2000,00:00:48.93,-53.71,-19.04,-963.87,3.16,1.79,-1.78,25.05,-29.85,22.35,21.37,03/01/2023,14:55:22.300,0,0,0,0,0,0,0,9999,9.719,
01/01/2000,00:00:49.02,-58.11,-22.95,-957.52,2.79,1.98,-0.34,27.15,-32.10,22.35,21.32,03/01/2023,14:55:22.400,0,0,0,0,0,0,0,9999,9.720,
01/01/2000,00:00:49.12,-53.22,-14.65,-970.70,2.39,-0.61,1.08,26.10,-30.30,22.05,21.51,03/01/2023,14:55:22.500,0,0,0,0,0,0,0,9999,9.720,
01/01/2000,00:00:49.22,-58.59,-10.25,-979.49,1.46,-0.27,1.85,27.0,-30.15,21.15,21.46,03/01/2023,14:55:22.600,0,0,0,0,0,0,0,9999,9.721,
01/01/2000,00:00:49.32,-58.59,-20.02,-978.52,4.69,-0.66,1.10,25.50,-30.90,21.90,21.32,03/01/2023,14:55:22.700,0,0,0,0,0,0,0,9999,9.721,
01/01/2000,00:00:49.42,-51.27,-23.44,-968.26,2.20,-1.52,-2.22,25.35,-32.10,24.90,21.37,03/01/2023,14:55:22.800,0,0,0,0,0,0,0,9999,9.722,
01/01/2000,00:00:49.52,-68.36,-25.39,-967.77,2.91,-1.16,2.85,25.05,-31.80,23.85,21.32,03/01/2023,14:55:22.900,0,0,0,0,0,0,0,9999,9.718,
01/01/2000,00:00:49.63,-52.25,-31.25,-982.42,1.40,1.53,0.14,27.15,-31.35,21.30,21.46,03/01/2023,14:55:23.000,0,0,0,0,0,0,0,9999,9.723,
01/01/2000,00:00:49.73,-62.01,-20.02,-969.73,0.63,1.31,0.98,26.70,-31.20,20.85,21.37,03/01/2023,14:55:23.100,0,0,0,0,0,0,0,9999,9.724,
01/01/2000,00:00:49.82,-51.76,-16.11,-985.35,1.98,-1.55,3.37,25.80,-30.30,21.75,21.37,03/01/2023,14:55:23.200,0,0,0,0,0,0,0,9999,9.724,
01/01/2000,00:00:49.92,-44.92,-22.95,-954.59,5.59,4.34,-0.15,26.85,-29.85,21.75,21.37,03/01/2023,14:55:23.300,0,0,0,0,0,0,0,9999,9.725,
01/01/2000,00:00:50.02,-56.15,-27.83,-987.79,0.95,0.50,4.06,23.70,-32.70,23.25,21.37,03/01/2023,14:55:23.400,0,0,0,0,0,0,0,9999,9.725,
01/01/2000,00:00:50.12,-45.41,-21.48,-973.14,5.32,-1.36,0.21,27.0,-31.65,21.90,21.46,03/01/2023,14:55:23.500,0,0,0,0,0,0,0,9999,9.726,
01/01/2000,00:00:50.22,-56.64,-8.79,-971.68,4.08,-1.76,2.35,25.20,-30.90,24.75,21.51,03/01/2023,14:55:23.600,0,0,0,0,0,0,0,9999,9.704,
01/01/2000,00:00:50.42,-59.08,-25.39,-961.91,1.85,-0.95,0.57,26.40,-30.60,20.25,21.13,03/01/2023,14:55:23.800,0,0,0,0,0,0,0,9999,9.703,
01/01/2000,00:00:50.53,-60.55,-28.32,-978.03,2.12,0.34,-0.58,27.90,-30.60,21.30,21.56,03/01/2023,14:55:23.900,0,0,0,0,0,0,0,9999,9.707,
01/01/2000,00:00:50.63,-70.31,-19.53,-968.26,2.61,0.47,0.53,25.35,-31.35,23.85,21.37,03/01/2023,14:55:24.000,0,0,0,0,0,0,0,9999,9.708,
01/01/2000,00:00:50.73,-56.64,-14.16,-973.63,0.31,-0.17,-0.60,24.90,-33.15,24.30,21.51,03/01/2023,14:55:24.100,0,0,0,0,0,0,0,9999,9.709,
01/01/2000,00:00:50.83,-56.64,-13.67,-974.12,4.79,0.34,-1.05,26.70,-30.15,20.85,21.66,03/01/2023,14:55:24.200,0,0,0,0,0,0,0,9999,9.709,
01/01/2000,00:00:50.92,-51.76,-16.60,-968.26,2.56,-0.78,-2.85,27.15,-31.35,21.75,21.51,03/01/2023,14:55:24.300,0,0,0,0,0,0,0,9999,9.710,
01/01/2000,00:00:51.02,-64.45,-17.58,-971.68,4.13,1.05,-0.98,26.85,-29.85,19.95,21.37,03/01/2023,14:55:24.400,0,0,0,0,0,0,0,9999,9.710,
01/01/2000,00:00:51.12,-63.96,-17.09,-968.26,2.53,0.42,-0.57,25.35,-31.80,25.20,21.37,03/01/2023,14:55:24.500,0,0,0,0,0,0,0,9999,9.711,
01/01/2000,00:00:51.22,-41.99,-20.51,-964.36,4.07,-1.50,-0.55,25.95,-31.20,22.65,21.32,03/01/2023,14:55:24.600,0,0,0,0,0,0,0,9999,9.712,
01/01/2000,00:00:51.32,-48.34,-16.60,-984.86,-1.31,1.21,-1.13,26.85,-30.30,21.0,21.46,03/01/2023,14:55:24.700,0,0,0,0,0,0,0,9999,9.712,
01/01/2000,00:00:51.42,-54.20,-29.79,-967.29,1.64,-2.27,0.24,27.0,-31.65,22.20,21.37,03/01/2023,14:55:24.800,0,0,0,0,0,0,0,9999,9.713,
01/01/2000,00:00:51.52,-66.41,-16.60,-958.50,3.49,0.32,1.27,27.15,-29.55,21.0,21.46,03/01/2023,14:55:24.900,0,0,0,0,0,0,0,9999,9.709,
01/01/2000,00:00:51.63,-56.15,-19.53,-965.33,2.65,0.76,-0.26,26.85,-29.25,22.05,21.18,03/01/2023,14:55:25.000,0,0,0,0,0,0,0,9999,9.712,
01/01/2000,00:00:51.73,-57.13,-15.14,-972.17,2.18,0.61,-0.54,25.35,-31.05,23.40,21.22,03/01/2023,14:55:25.100,0,0,0,0,0,0,0,9999,9.713,
01/01/2000,00:00:51.83,-64.45,-26.86,-963.87,-1.11,0.27,0.33,28.65,-31.05,21.0,21.37,03/01/2023,14:55:25.200,0,0,0,0,0,0,0,9999,9.713,
01/01/2000,00:00:51.93,-54.69,-8.79,-975.10,1.18,0.24,-0.41,26.10,-30.30,22.05,21.46,03/01/2023,14:55:25.300,0,0,0,0,0,0,0,9999,9.714,
01/01/2000,00:00:52.03,-62.01,-26.86,-975.10,0.74,-1.29,-0.78,27.15,-29.55,21.30,21.18,03/01/2023,14:55:25.400,0,0,0,0,0,0,0,9999,9.716,
01/01/2000,00:00:52.13,-49.32,-30.76,-983.89,2.56,-0.50,2.60,27.30,-29.70,21.15,21.18,03/01/2023,14:55:25.500,0,0,0,0,0,0,0,9999,9.717,
01/01/2000,00:00:52.23,-56.64,-26.86,-974.12,5.06,-0.03,-2.01,24.15,-33.15,24.0,21.37,03/01/2023,14:55:25.600,0,0,0,0,0,0,0,9999,9.717,
01/01/2000,00:00:52.33,-65.92,-18.07,-978.03,1.23,-0.78,-1.06,25.95,-32.70,22.65,21.46,03/01/2023,14:55:25.700,0,0,0,0,0,0,0,9999,9.718,
01/01/2000,00:00:52.43,-49.32,-17.09,-963.38,3.47,-0.63,0.93,27.30,-31.20,20.40,21.13,03/01/2023,14:55:25.800,0,0,0,0,0,0,0,9999,9.719,
01/01/2000,00:00:52.53,-60.06,-19.53,-953.13,3.34,1.77,2.27,26.25,-31.20,21.45,21.46,03/01/2023,14:55:25.900,0,0,0,0,0,0,0,9999,9.719,
01/01/2000,00:00:52.63,-47.36,-21.00,-962.89,4.75,-0.15,2.21,26.10,-31.35,22.35,21.46,03/01/2023,14:55:26.000,0,0,0,0,0,0,0,9999,9.720,
01/01/2000,00:00:52.72,-63.48,-16.11,-974.12,2.15,0.89,-0.56,26.10,-30.30,21.0,21.18,03/01/2023,14:55:26.100,0,0,0,0,0,0,0,9999,9.720,
01/01/2000,00:00:52.82,-57.13,-22.95,-970.70,1.08,-1.20,1.67,24.30,-31.05,22.80,21.37,03/01/2023,14:55:26.200,0,0,0,0,0,0,0,9999,9.721,
01/01/2000,00:00:52.92,-58.11,-21.00,-973.63,3.37,0.08,-0.64,23.70,-31.65,24.0,21.46,03/01/2023,14:55:26.300,0,0,0,0,0,0,0,9999,9.721,
01/01/2000,00:00:53.02,-65.92,-18.55,-974.12,3.10,0.70,1.87,26.70,-30.90,21.15,21.56,03/01/2023,14:55:26.400,0,0,0,0,0,0,0,9999,9.722,
01/01/2000,00:00:53.12,-46.39,-27.34,-968.26,5.88,-1.09,-0.50,27.15,-31.05,21.0,21.66,03/01/2023,14:55:26.500,0,0,0,0,0,0,0,9999,9.722,
01/01/2000,00:00:53.22,-51.27,-11.23,-969.73,2.79,-0.53,1.54,26.70,-29.40,21.45,21.46,03/01/2023,14:55:26.600,0,0,0,0,0,0,0,9999,9.723,
01/01/2000,00:00:53.32,-59.57,1.95,-988.77,2.51,-0.16,-0.35,26.10,-31.35,22.05,21.56,03/01/2023,14:55:26.700,0,0,0,0,0,0,0,9999,9.724,
01/01/2000,00:00:53.42,-66.89,-18.07,-964.84,1.31,3.84,-0.99,25.50,-31.20,22.20,21.56,03/01/2023,14:55:26.800,0,0,0,0,0,0,0,9999,9.724,
01/01/2000,00:00:53.52,-50.78,-33.69,-973.14,2.71,-2.94,0.23,25.35,-30.60,23.10,21.75,03/01/2023,14:55:26.900,0,0,0,0,0,0,0,9999,9.721,
01/01/2000,00:00:53.62,-56.15,-28.32,-969.24,0.96,-0.05,1.93,26.25,-31.20,20.85,21.56,03/01/2023,14:55:27.000,0,0,0,0,0,0,0,9999,9.725,
01/01/2000,00:00:53.72,-52.73,-7.32,-954.59,1.42,-0.99,1.32,25.80,-31.80,22.35,21.56,03/01/2023,14:55:27.100,0,0,0,0,0,0,0,9999,9.726,
01/01/2000,00:00:53.82,-58.11,-14.16,-968.26,4.98,0.12,-1.63,26.25,-30.90,21.0,21.56,03/01/2023,14:55:27.200,0,0,0,0,0,0,0,9999,9.726,
01/01/2000,00:00:53.92,-56.64,-15.14,-963.38,4.56,-2.48,2.35,26.70,-30.45,21.45,21.22,03/01/2023,14:55:27.300,0,0,0,0,0,0,0,9999,9.727,
01/01/2000,00:00:54.02,-56.15,-30.27,-961.91,2.66,1.92,0.58,24.15,-31.95,23.70,21.46,03/01/2023,14:55:27.400,0,0,0,0,0,0,0,9999,9.727,
01/01/2000,00:00:54.12,-50.78,-12.21,-968.75,3.53,0.02,2.12,24.15,-30.90,24.30,21.66,03/01/2023,14:55:27.500,0,0,0,0,0,0,0,9999,9.728,
01/01/2000,00:00:54.22,-63.96,-38.09,-973.63,3.47,-1.58,0.98,26.10,-30.60,21.0,21.56,03/01/2023,14:55:27.600,0,0,0,0,0,0,0,9999,9.728,
01/01/2000,00:00:54.32,-60.55,-24.90,-959.47,1.29,0.02,-1.19,26.70,-29.70,21.45,21.46,03/01/2023,14:55:27.700,0,0,0,0,0,0,0,9999,9.725,
01/01/2000,00:00:54.42,-69.34,-10.25,-974.12,5.38,0.31,-1.60,27.15,-30.30,22.05,21.66,03/01/2023,14:55:27.800,0,0,0,0,0,0,0,9999,9.730,
01/01/2000,00:00:54.52,-32.71,-14.65,-966.31,1.61,-0.33,1.48,27.15,-30.30,21.30,21.56,03/01/2023,14:55:27.900,0,0,0,0,0,0,0,9999,9.730,
01/01/2000,00:00:54.62,-63.96,-7.81,-979.98,2.65,1.07,-1.32,23.55,-31.05,24.15,21.70,03/01/2023,14:55:28.000,0,0,0,0,0,0,0,9999,9.731,
01/01/2000,00:00:54.72,-54.20,-23.93,-971.68,1.73,0.02,-0.09,26.40,-32.10,22.05,21.70,03/01/2023,14:55:28.100,0,0,0,0,0,0,0,9999,9.731,
01/01/2000,00:00:54.82,-63.96,-15.63,-972.66,1.76,0.09,0.98,25.05,-31.05,23.85,21.66,03/01/2023,14:55:28.200,0,0,0,0,0,0,0,9999,9.732,
01/01/2000,00:00:54.92,-55.18,-31.74,-963.87,1.81,-0.55,2.39,26.85,-29.85,21.0,21.37,03/01/2023,14:55:28.300,0,0,0,0,0,0,0,9999,9.732,
01/01/2000,00:00:55.02,-55.66,-26.37,-982.42,2.38,-2.14,1.18,26.10,-30.30,21.75,21.66,03/01/2023,14:55:28.400,0,0,0,0,0,0,0,9999,9.733,
01/01/2000,00:00:55.12,-54.20,-14.65,-961.91,2.54,1.30,-2.62,27.90,-29.55,21.75,21.56,03/01/2023,14:55:28.500,0,0,0,0,0,0,0,9999,9.733,
01/01/2000,00:00:55.22,-59.08,-19.04,-982.42,5.20,-0.62,-1.02,25.20,-32.55,25.95,21.37,03/01/2023,14:55:28.600,0,0,0,0,0,0,0,9999,9.734,
01/01/2000,00:00:55.32,-62.50,-18.07,-972.66,1.0,-1.18,0.80,24.90,-30.90,23.70,21.37,03/01/2023,14:55:28.700,0,0,0,0,0,0,0,9999,9.734,
01/01/2000,00:00:55.42,-68.85,-24.90,-975.10,5.02,0.30,-1.93,27.60,-28.80,21.75,21.56,03/01/2023,14:55:28.800,0,0,0,0,0,0,0,9999,9.731,
01/01/2000,00:00:55.52,-56.64,-25.88,-971.19,-1.35,-0.13,-0.36,26.85,-30.30,19.95,21.46,03/01/2023,14:55:28.900,0,0,0,0,0,0,0,9999,9.735,
01/01/2000,00:00:55.62,-67.38,-12.21,-973.14,3.38,-1.05,0.27,25.35,-31.35,24.15,21.56,03/01/2023,14:55:29.000,0,0,0,0,0,0,0,9999,9.736,
01/01/2000,00:00:55.72,-54.69,-26.37,-968.75,2.31,0.04,-1.71,26.25,-29.70,20.85,21.70,03/01/2023,14:55:29.100,0,0,0,0,0,0,0,9999,9.736,
01/01/2000,00:00:55.82,-62.01,-25.39,-971.68,-0.49,-0.18,0.19,25.95,-33.45,24.30,21.56,03/01/2023,14:55:29.200,0,0,0,0,0,0,0,9999,9.737,
01/01/2000,00:00:55.92,-63.96,-24.90,-966.31,1.28,-0.37,-0.44,26.10,-30.30,22.05,21.70,03/01/2023,14:55:29.300,0,0,0,0,0,0,0,9999,9.737,
01/01/2000,00:00:56.02,-64.94,-15.63,-964.36,3.04,2.85,2.76,26.10,-29.55,21.30,21.66,03/01/2023,14:55:29.400,0,0,0,0,0,0,0,9999,9.738,
01/01/2000,00:00:56.12,-64.45,-21.48,-972.17,2.66,1.40,0.30,26.25,-30.45,21.15,21.66,03/01/2023,14:55:29.500,0,0,0,0,0,0,0,9999,9.738,
01/01/2000,00:00:56.22,-62.99,-0.49,-988.77,4.21,-2.45,-0.40,27.15,-29.55,22.05,21.56,03/01/2023,14:55:29.600,0,0,0,0,0,0,0,9999,9.735,
01/01/2000,00:00:56.33,-44.92,-8.79,-959.47,2.94,-0.11,-1.17,25.05,-32.55,25.65,21.70,03/01/2023,14:55:29.700,0,0,0,0,0,0,0,9999,9.737,
01/01/2000,00:00:56.43,-52.25,-19.53,-960.94,4.29,-0.34,1.24,25.05,-32.55,23.85,21.70,03/01/2023,14:55:29.800,0,0,0,0,0,0,0,9999,9.738,
01/01/2000,00:00:56.53,-61.52,-32.71,-987.79,4.63,-0.25,0.71,27.90,-29.85,21.30,21.37,03/01/2023,14:55:29.900,0,0,0,0,0,0,0,9999,9.738,
01/01/2000,00:00:56.63,-65.43,-20.51,-954.10,2.98,0.26,1.75,27.30,-30.90,22.20,21.37,03/01/2023,14:55:30.000,0,0,0,0,0,0,0,9999,9.739,
01/01/2000,00:00:56.73,-52.25,-29.79,-973.14,3.28,-0.31,-0.02,25.20,-31.95,23.70,21.37,03/01/2023,14:55:30.100,0,0,0,0,0,0,0,9999,9.739,
01/01/2000,00:00:56.83,-50.78,-24.41,-968.26,1.18,-0.66,-4.78,27.30,-31.20,21.90,21.46,03/01/2023,14:55:30.200,0,0,0,0,0,0,0,9999,9.740,
01/01/2000,00:00:56.93,-48.34,-17.58,-978.03,5.98,-0.80,-0.79,25.05,-31.35,23.85,21.66,03/01/2023,14:55:30.300,0,0,0,0,0,0,0,9999,9.740,
01/01/2000,00:00:57.03,-57.13,-19.53,-957.03,4.36,0.08,0.01,23.70,-32.40,23.25,21.66,03/01/2023,14:55:30.400,0,0,0,0,0,0,0,9999,9.743,
01/01/2000,00:00:57.13,-64.45,-17.58,-950.20,4.94,-0.77,-1.07,25.20,-31.95,25.05,21.70,03/01/2023,14:55:30.500,0,0,0,0,0,0,0,9999,9.743,
01/01/2000,00:00:57.23,-57.13,-4.39,-966.31,2.79,0.64,-0.83,26.25,-30.90,21.45,21.56,03/01/2023,14:55:30.600,0,0,0,0,0,0,0,9999,9.743,
01/01/2000,00:00:57.33,-49.32,-19.04,-968.26,3.56,0.24,2.72,27.30,-32.40,22.95,21.70,03/01/2023,14:55:30.700,0,0,0,0,0,0,0,9999,9.744,
01/01/2000,00:00:57.43,-65.43,-11.72,-960.45,3.54,-0.02,0.86,24.90,-30.90,23.70,21.70,03/01/2023,14:55:30.800,0,0,0,0,0,0,0,9999,9.744,
01/01/2000,00:00:57.53,-37.11,-15.14,-972.66,4.37,-0.69,2.03,23.70,-31.20,26.10,21.66,03/01/2023,14:55:30.900,0,0,0,0,0,0,0,9999,9.745,
01/01/2000,00:00:57.63,-53.71,-28.32,-963.38,3.82,-1.21,0.21,25.05,-30.30,25.20,21.66,03/01/2023,14:55:31.000,0,0,0,0,0,0,0,9999,9.745,
01/01/2000,00:00:57.72,-58.11,-32.71,-974.61,2.95,1.76,-2.89,26.70,-31.20,22.20,21.85,03/01/2023,14:55:31.100,0,0,0,0,0,0,0,9999,9.746,
01/01/2000,00:00:57.82,-43.46,-14.16,-982.91,4.98,-0.71,1.95,24.60,-31.35,24.45,21.56,03/01/2023,14:55:31.200,0,0,0,0,0,0,0,9999,9.746,
01/01/2000,00:00:57.92,-56.15,-20.02,-966.80,4.54,0.81,1.36,25.95,-30.45,22.20,21.70,03/01/2023,14:55:31.300,0,0,0,0,0,0,0,9999,9.747,
01/01/2000,00:00:58.02,-50.29,-22.46,-970.21,2.20,1.11,0.36,26.70,-31.20,21.45,21.90,03/01/2023,14:55:31.400,0,0,0,0,0,0,0,9999,9.747,
01/01/2000,00:00:58.12,-58.59,-21.00,-962.40,3.33,-2.03,-2.09,24.30,-31.05,24.90,21.46,03/01/2023,14:55:31.500,0,0,0,0,0,0,0,9999,9.748,
01/01/2000,00:00:58.22,-62.50,-16.11,-975.59,0.53,-1.50,-1.48,26.10,-34.05,25.20,21.37,03/01/2023,14:55:31.600,0,0,0,0,0,0,0,9999,9.748,
01/01/2000,00:00:58.32,-56.15,-9.77,-974.61,3.88,-1.60,-0.32,25.35,-31.35,20.70,21.70,03/01/2023,14:55:31.700,0,0,0,0,0,0,0,9999,9.749,
01/01/2000,00:00:58.42,-62.99,-28.81,-964.84,1.11,-2.57,0.07,27.15,-31.35,21.0,21.66,03/01/2023,14:55:31.800,0,0,0,0,0,0,0,9999,9.749,
01/01/2000,00:00:58.52,-61.04,-21.97,-968.75,3.36,-1.13,-0.91,26.70,-30.15,21.45,21.85,03/01/2023,14:55:31.900,0,0,0,0,0,0,0,9999,9.746,
01/01/2000,00:00:58.64,-47.36,-24.41,-977.05,0.92,0.91,-0.63,24.90,-32.70,25.35,21.85,03/01/2023,14:55:32.000,0,0,0,0,0,0,0,9999,9.748,
01/01/2000,00:00:58.73,-62.01,-27.34,-977.05,1.90,-1.45,0.27,24.45,-32.40,22.65,21.75,03/01/2023,14:55:32.100,0,0,0,0,0,0,0,9999,9.749,
01/01/2000,00:00:58.83,-56.15,-25.39,-971.19,2.43,-0.29,1.59,27.60,-32.10,22.05,21.70,03/01/2023,14:55:32.200,0,0,0,0,0,0,0,9999,9.749,
01/01/2000,00:00:58.93,-62.50,-17.09,-965.33,2.03,0.71,1.34,26.10,-31.05,25.20,21.75,03/01/2023,14:55:32.300,0,0,0,0,0,0,0,9999,9.750,
01/01/2000,00:00:59.03,-58.11,-15.14,-967.29,4.90,-1.55,1.38,26.70,-30.90,22.20,21.66,03/01/2023,14:55:32.400,0,0,0,0,0,0,0,9999,9.750,
01/01/2000,00:00:59.13,-62.01,-10.25,-977.54,0.21,-1.27,-0.01,26.40,-30.30,22.05,21.70,03/01/2023,14:55:32.500,0,0,0,0,0,0,0,9999,9.750,
01/01/2000,00:00:59.23,-27.83,-16.11,-981.45,1.35,1.05,0.04,24.0,-30.60,24.15,21.66,03/01/2023,14:55:32.600,0,0,0,0,0,0,0,9999,9.751,
01/01/2000,00:00:59.33,-55.66,-11.23,-982.91,2.25,0.09,-0.53,25.20,-31.20,24.75,21.56,03/01/2023,14:55:32.700,0,0,0,0,0,0,0,9999,9.751,
01/01/2000,00:00:59.43,-64.45,-27.34,-969.73,1.87,1.05,1.59,27.90,-31.05,21.75,21.99,03/01/2023,14:55:32.800,0,0,0,0,0,0,0,9999,9.752,
01/01/2000,00:00:59.53,-54.69,-28.81,-968.26,4.62,-1.66,0.90,26.25,-30.90,21.45,21.85,03/01/2023,14:55:32.900,0,0,0,0,0,0,0,9999,9.752,
01/01/2000,00:00:59.63,-80.08,-41.99,-983.40,4.13,-0.08,2.24,26.85,-30.30,20.70,21.66,03/01/2023,14:55:33.000,0,0,0,0,0,0,0,9999,9.753,
01/01/2000,00:00:59.73,-58.59,-19.53,-978.03,1.73,2.71,1.45,25.20,-31.95,23.25,21.51,03/01/2023,14:55:33.100,0,0,0,0,0,0,0,9999,9.753,
01/01/2000,00:00:59.83,-39.06,-30.76,-972.66,3.73,-1.24,2.79,25.05,-32.10,24.15,21.90,03/01/2023,14:55:33.200,0,0,0,0,0,0,0,9999,9.754,
01/01/2000,00:00:59.93,-46.39,-9.77,-960.94,3.25,-3.41,0.54,25.20,-31.20,23.70,21.75,03/01/2023,14:55:33.300,0,0,0,0,0,0,0,9999,9.756,
01/01/2000,00:01:00.03,-37.11,-3.91,-964.84,3.22,-1.58,-1.74,25.35,-30.60,23.10,21.56,03/01/2023,14:55:33.400,0,0,0,0,0,0,0,9999,9.756,
01/01/2000,00:01:00.13,-58.59,-20.02,-968.26,2.97,-0.74,1.69,24.0,-31.80,23.10,21.66,03/01/2023,14:55:33.500,0,0,0,0,0,0,0,9999,9.757,
01/01/2000,00:01:00.23,-61.04,-14.65,-959.47,2.58,0.72,0.21,26.25,-30.45,22.20,22.04,03/01/2023,14:55:33.600,0,0,0,0,0,0,0,9999,9.757,
01/01/2000,00:01:00.33,-45.41,-20.02,-964.84,3.31,-0.85,-1.46,27.15,-31.05,23.10,21.99,03/01/2023,14:55:33.700,0,0,0,0,0,0,0,9999,9.757,
01/01/2000,00:01:00.43,-66.41,-20.51,-978.52,2.85,-0.42,0.95,24.15,-31.95,25.80,21.70,03/01/2023,14:55:33.800,0,0,0,0,0,0,0,9999,9.758,
01/01/2000,00:01:00.53,-51.27,-13.67,-964.36,3.29,-1.54,1.51,27.0,-31.20,23.25,21.75,03/01/2023,14:55:33.900,0,0,0,0,0,0,0,9999,9.758,
01/01/2000,00:01:00.62,-60.55,-19.53,-965.82,4.84,-1.50,0.67,28.05,-30.90,21.45,21.70,03/01/2023,14:55:34.000,0,0,0,0,0,0,0,9999,9.759,
01/01/2000,00:01:00.72,-50.29,-22.95,-978.52,-0.47,3.69,0.34,26.25,-31.20,21.45,21.70,03/01/2023,14:55:34.100,0,0,0,0,0,0,0,9999,9.759,
01/01/2000,00:01:00.82,-50.78,-20.02,-968.26,-1.43,-0.09,-0.69,25.05,-31.80,24.90,21.66,03/01/2023,14:55:34.200,0,0,0,0,0,0,0,9999,9.759,
01/01/2000,00:01:00.92,-61.52,-19.04,-973.63,3.27,1.26,2.29,27.30,-30.90,22.65,21.85,03/01/2023,14:55:34.300,0,0,0,0,0,0,0,9999,9.760,
01/01/2000,00:01:01.02,-47.36,-29.79,-974.61,0.92,-1.44,1.07,23.70,-33.15,24.30,21.75,03/01/2023,14:55:34.400,0,0,0,0,0,0,0,9999,9.760,
01/01/2000,00:01:01.12,-55.66,-13.67,-980.96,4.50,0.79,1.05,25.80,-31.05,24.90,21.90,03/01/2023,14:55:34.500,0,0,0,0,0,0,0,9999,9.761,
01/01/2000,00:01:01.22,-47.85,-20.51,-962.89,2.58,0.37,-1.44,26.25,-31.65,24.0,21.75,03/01/2023,14:55:34.600,0,0,0,0,0,0,0,9999,9.761,
01/01/2000,00:01:01.32,-79.10,-26.86,-982.42,1.49,-1.62,1.04,26.40,-30.30,22.05,21.70,03/01/2023,14:55:34.700,0,0,0,0,0,0,0,9999,9.762,
01/01/2000,00:01:01.42,-43.95,-10.74,-967.29,3.60,0.75,1.63,27.30,-31.95,21.90,21.70,03/01/2023,14:55:34.800,0,0,0,0,0,0,0,9999,9.762,
01/01/2000,00:01:01.52,-66.41,-16.11,-969.24,1.02,-0.44,-0.34,25.95,-29.70,22.20,21.75,03/01/2023,14:55:34.900,0,0,0,0,0,0,0,9999,9.759,
01/01/2000,00:01:01.63,-62.01,-22.95,-970.70,4.80,1.20,-2.17,27.60,-31.80,23.10,21.75,03/01/2023,14:55:35.000,0,0,0,0,0,0,0,9999,9.761,
01/01/2000,00:01:01.73,-47.36,-23.44,-965.82,3.91,0.71,-0.13,27.0,-31.20,23.25,21.85,03/01/2023,14:55:35.100,0,0,0,0,0,0,0,9999,9.761,
01/01/2000,00:01:01.83,-46.88,-5.37,-970.70,-0.58,0.10,-0.32,26.85,-29.55,20.70,21.70,03/01/2023,14:55:35.200,0,0,0,0,0,0,0,9999,9.762,
01/01/2000,00:01:01.93,-66.89,-20.51,-975.59,0.55,-0.94,-0.68,24.15,-31.95,24.0,21.99,03/01/2023,14:55:35.300,0,0,0,0,0,0,0,9999,9.762,
01/01/2000,00:01:02.03,-48.83,-32.71,-971.19,1.88,1.24,-1.63,26.70,-29.70,23.25,21.90,03/01/2023,14:55:35.400,0,0,0,0,0,0,0,9999,9.763,
01/01/2000,00:01:02.13,-78.61,-31.25,-952.64,2.27,-1.08,2.45,26.85,-30.30,21.75,21.70,03/01/2023,14:55:35.500,0,0,0,0,0,0,0,9999,9.763,
01/01/2000,00:01:02.23,-56.15,-15.63,-970.70,2.24,1.08,-0.41,24.60,-32.85,24.45,21.66,03/01/2023,14:55:35.600,0,0,0,0,0,0,0,9999,9.764,
01/01/2000,00:01:02.33,-57.13,-22.95,-948.24,3.39,0.03,-0.63,24.60,-31.35,24.15,21.85,03/01/2023,14:55:35.700,0,0,0,0,0,0,0,9999,9.764,
01/01/2000,00:01:02.43,-53.22,-18.07,-954.10,3.33,0.34,2.37,26.70,-30.90,21.90,21.75,03/01/2023,14:55:35.800,0,0,0,0,0,0,0,9999,9.764,
01/01/2000,00:01:02.53,-62.50,-8.30,-968.75,0.09,-1.21,1.20,26.40,-32.85,21.75,21.70,03/01/2023,14:55:35.900,0,0,0,0,0,0,0,9999,9.765,
01/01/2000,00:01:02.63,-63.96,-23.93,-966.80,1.84,0.79,0.99,27.0,-28.95,22.65,21.99,03/01/2023,14:55:36.000,0,0,0,0,0,0,0,9999,9.765,
01/01/2000,00:01:02.73,-58.59,-19.53,-958.50,2.28,0.37,0.48,25.35,-31.35,23.40,21.99,03/01/2023,14:55:36.100,0,0,0,0,0,0,0,9999,9.767,
01/01/2000,00:01:02.83,-70.80,-20.02,-963.87,-0.65,0.65,-0.92,25.05,-32.55,23.85,21.99,03/01/2023,14:55:36.200,0,0,0,0,0,0,0,9999,9.768,
01/01/2000,00:01:02.93,-41.50,-27.34,-976.07,-1.19,0.49,0.93,24.15,-31.65,24.30,21.85,03/01/2023,14:55:36.300,0,0,0,0,0,0,0,9999,9.768,
01/01/2000,00:01:03.03,-61.52,-32.71,-937.50,3.30,-0.85,1.15,22.65,-31.65,25.80,22.04,03/01/2023,14:55:36.400,0,0,0,0,0,0,0,9999,9.768,
01/01/2000,00:01:03.13,-54.20,-15.14,-975.59,3.74,0.82,-0.82,26.25,-30.15,21.45,21.85,03/01/2023,14:55:36.500,0,0,0,0,0,0,0,9999,9.769,
01/01/2000,00:01:03.23,-47.85,-12.70,-951.66,-1.62,1.34,-0.84,26.40,-30.30,22.05,21.90,03/01/2023,14:55:36.600,0,0,0,0,0,0,0,9999,9.769,
01/01/2000,00:01:03.33,-58.59,-15.63,-961.43,0.11,-1.18,-3.34,26.10,-29.25,22.80,21.85,03/01/2023,14:55:36.700,0,0,0,0,0,0,0,9999,9.769,
01/01/2000,00:01:03.42,-53.71,-23.93,-969.24,2.76,-1.39,3.30,26.40,-31.05,24.90,21.99,03/01/2023,14:55:36.800,0,0,0,0,0,0,0,9999,9.770,
01/01/2000,00:01:03.52,-71.29,-24.41,-972.66,4.36,1.44,-3.51,23.55,-31.05,24.45,21.85,03/01/2023,14:55:36.900,0,0,0,0,0,0,0,9999,9.770,
01/01/2000,00:01:03.62,-40.04,-22.46,-964.36,4.76,-0.94,2.52,27.60,-30.60,22.05,21.99,03/01/2023,14:55:37.000,0,0,0,0,0,0,0,9999,9.771,
01/01/2000,00:01:03.72,-56.64,-11.23,-977.05,3.99,1.35,0.53,27.90,-32.10,22.80,21.75,03/01/2023,14:55:37.100,0,0,0,0,0,0,0,9999,9.753,
01/01/2000,00:01:03.92,-50.29,-11.23,-975.59,2.85,-0.41,0.98,28.20,-29.85,21.75,21.90,03/01/2023,14:55:37.300,0,0,0,0,0,0,0,9999,9.755,
01/01/2000,00:01:04.02,-43.95,-23.93,-984.38,-0.65,0.88,0.56,25.80,-29.55,24.45,21.99,03/01/2023,14:55:37.400,0,0,0,0,0,0,0,9999,9.756,
01/01/2000,00:01:04.12,-53.71,-21.97,-980.47,5.66,1.80,0.36,26.70,-28.95,22.65,21.70,03/01/2023,14:55:37.500,0,0,0,0,0,0,0,9999,9.756,
01/01/2000,00:01:04.22,-44.43,-21.48,-969.24,1.54,-0.19,-0.86,26.70,-31.20,21.45,22.04,03/01/2023,14:55:37.600,0,0,0,0,0,0,0,9999,9.756,
01/01/2000,00:01:04.32,-50.78,-19.04,-975.59,4.51,-0.80,1.61,24.45,-32.40,24.30,21.75,03/01/2023,14:55:37.700,0,0,0,0,0,0,0,9999,9.757,
01/01/2000,00:01:04.42,-51.27,-25.88,-966.80,1.27,1.27,0.20,26.25,-30.90,21.90,22.04,03/01/2023,14:55:37.800,0,0,0,0,0,0,0,9999,9.757,
01/01/2000,00:01:04.52,-90.82,-42.97,-956.05,5.52,-1.08,-1.01,25.05,-31.05,25.20,21.85,03/01/2023,14:55:37.900,0,0,0,0,0,0,0,9999,9.755,
01/01/2000,00:01:04.63,-114.75,-58.11,-920.90,5.37,-3.81,0.66,26.40,-29.85,22.80,21.99,03/01/2023,14:55:38.000,0,0,0,0,0,0,0,9999,9.758,
01/01/2000,00:01:04.73,-38.57,-7.81,-952.15,1.80,-1.63,-0.27,26.10,-30.60,22.35,21.90,03/01/2023,14:55:38.100,0,0,0,0,0,0,0,9999,9.758,
01/01/2000,00:01:04.83,-40.04,-29.79,-968.26,4.82,-2.62,0.95,26.70,-30.15,22.95,21.99,03/01/2023,14:55:38.200,0,0,0,0,0,0,0,9999,9.759,
01/01/2000,00:01:04.93,-31.25,4.88,-981.45,-0.60,-0.26,5.36,26.85,-29.25,21.30,21.99,03/01/2023,14:55:38.300,0,0,0,0,0,0,0,9999,9.759,
01/01/2000,00:01:05.03,-38.57,-19.04,-967.29,4.05,-0.41,0.30,24.0,-32.55,26.70,21.90,03/01/2023,14:55:38.400,0,0,0,0,0,0,0,9999,9.760,
01/01/2000,00:01:05.13,-44.92,-16.11,-967.29,3.66,-1.47,3.17,27.15,-32.55,24.45,21.75,03/01/2023,14:55:38.500,0,0,0,0,0,0,0,9999,9.760,
01/01/2000,00:01:05.23,-54.20,-23.93,-972.66,2.60,-2.77,0.71,27.60,-30.30,22.05,21.85,03/01/2023,14:55:38.600,0,0,0,0,0,0,0,9999,9.760,
01/01/2000,00:01:05.33,-59.08,-17.09,-981.93,-1.35,-1.98,2.30,27.30,-30.90,21.45,21.90,03/01/2023,14:55:38.700,0,0,0,0,0,0,0,9999,9.761,
01/01/2000,00:01:05.42,-53.22,-24.90,-975.10,1.99,0.28,-1.35,25.05,-30.60,25.20,21.99,03/01/2023,14:55:38.800,0,0,0,0,0,0,0,9999,9.761,
01/01/2000,00:01:05.52,-53.22,-24.90,-951.66,0.06,2.08,0.27,26.85,-29.55,21.30,21.85,03/01/2023,14:55:38.900,0,0,0,0,0,0,0,9999,9.762,
01/01/2000,00:01:05.62,-61.04,-21.48,-968.75,2.93,1.12,-0.24,24.30,-31.35,24.90,22.04,03/01/2023,14:55:39.000,0,0,0,0,0,0,0,9999,9.762,
01/01/2000,00:01:05.72,-54.20,-2.44,-970.21,3.47,-0.54,0.64,25.35,-31.05,22.80,22.09,03/01/2023,14:55:39.100,0,0,0,0,0,0,0,9999,9.762,
01/01/2000,00:01:05.82,-52.25,-19.53,-985.35,4.44,-1.42,-1.81,25.20,-32.40,25.05,22.04,03/01/2023,14:55:39.200,0,0,0,0,0,0,0,9999,9.763,
01/01/2000,00:01:05.92,-63.48,-31.25,-971.68,3.41,-1.84,-2.09,26.40,-29.85,22.35,21.90,03/01/2023,14:55:39.300,0,0,0,0,0,0,0,9999,9.763,
01/01/2000,00:01:06.02,-52.73,-17.09,-959.96,1.27,-0.31,-1.19,27.0,-30.45,22.20,22.18,03/01/2023,14:55:39.400,0,0,0,0,0,0,0,9999,9.763,
01/01/2000,00:01:06.12,-52.73,-19.53,-972.17,1.82,2.74,0.72,24.0,-32.10,24.15,22.04,03/01/2023,14:55:39.500,0,0,0,0,0,0,0,9999,9.764,
01/01/2000,00:01:06.22,-56.15,-29.30,-964.36,3.37,-1.28,0.72,25.35,-33.30,24.90,22.09,03/01/2023,14:55:39.600,0,0,0,0,0,0,0,9999,9.761,
01/01/2000,00:01:06.33,-62.99,-18.55,-959.47,4.27,-2.21,2.31,28.05,-30.15,20.40,21.99,03/01/2023,14:55:39.700,0,0,0,0,0,0,0,9999,9.765,
01/01/2000,00:01:06.43,-46.39,-10.25,-954.10,2.97,1.49,-2.63,26.25,-30.90,20.85,21.75,03/01/2023,14:55:39.800,0,0,0,0,0,0,0,9999,9.765,
01/01/2000,00:01:06.52,-52.73,-30.27,-975.59,2.96,1.05,-1.20,24.60,-31.80,24.45,21.99,03/01/2023,14:55:39.900,0,0,0,0,0,0,0,9999,9.765,
01/01/2000,00:01:06.62,-47.85,-25.39,-963.87,1.95,-0.19,-1.25,27.0,-31.20,22.95,21.99,03/01/2023,14:55:40.000,0,0,0,0,0,0,0,9999,9.766,
01/01/2000,00:01:06.72,-42.48,-29.30,-970.70,4.05,-0.60,1.04,26.40,-30.30,22.05,21.90,03/01/2023,14:55:40.100,0,0,0,0,0,0,0,9999,9.766,
01/01/2000,00:01:06.82,-52.25,-18.07,-966.31,2.53,-0.92,1.09,24.30,-34.05,25.95,21.90,03/01/2023,14:55:40.200,0,0,0,0,0,0,0,9999,9.766,
01/01/2000,00:01:06.92,-58.59,-24.41,-964.84,1.93,0.95,2.29,25.50,-32.40,24.30,22.04,03/01/2023,14:55:40.300,0,0,0,0,0,0,0,9999,9.767,
01/01/2000,00:01:07.02,-47.85,-15.14,-960.45,0.39,1.11,1.97,27.75,-30.15,20.40,22.04,03/01/2023,14:55:40.400,0,0,0,0,0,0,0,9999,9.767,
01/01/2000,00:01:07.12,-59.57,-17.58,-959.96,2.43,-1.13,-0.25,27.90,-30.30,21.75,21.75,03/01/2023,14:55:40.500,0,0,0,0,0,0,0,9999,9.768,
01/01/2000,00:01:07.22,-61.52,-25.88,-968.75,0.26,-2.15,-0.50,27.15,-30.30,23.10,22.09,03/01/2023,14:55:40.600,0,0,0,0,0,0,0,9999,9.768,
01/01/2000,00:01:07.32,-57.62,-17.09,-973.14,0.32,-1.24,-0.72,25.50,-32.40,24.30,21.70,03/01/2023,14:55:40.700,0,0,0,0,0,0,0,9999,9.768,
01/01/2000,00:01:07.42,-56.64,-24.41,-977.54,2.85,-2.38,3.60,24.45,-31.95,24.0,21.90,03/01/2023,14:55:40.800,0,0,0,0,0,0,0,9999,9.769,
01/01/2000,00:01:07.52,-60.06,-16.11,-961.91,0.35,1.46,0.81,24.60,-31.35,25.20,21.70,03/01/2023,14:55:40.900,0,0,0,0,0,0,0,9999,9.766,
01/01/2000,00:01:07.63,-31.74,-25.39,-991.21,-0.52,-0.24,1.74,26.40,-30.30,21.75,21.85,03/01/2023,14:55:41.000,0,0,0,0,0,0,0,9999,9.769,
01/01/2000,00:01:07.72,-69.82,-17.09,-961.43,3.56,-1.60,-0.20,27.15,-31.05,22.05,22.04,03/01/2023,14:55:41.100,0,0,0,0,0,0,0,9999,9.770,
01/01/2000,00:01:07.82,-46.88,-21.48,-969.73,1.49,0.66,3.10,27.15,-29.85,20.70,21.75,03/01/2023,14:55:41.200,0,0,0,0,0,0,0,9999,9.770,
01/01/2000,00:01:07.92,-49.80,-18.55,-969.73,-1.20,0.76,-1.68,26.70,-31.65,20.85,21.75,03/01/2023,14:55:41.300,0,0,0,0,0,0,0,9999,9.770,
01/01/2000,00:01:08.02,-48.83,-23.44,-970.21,2.50,-1.92,-1.02,24.60,-30.60,24.45,22.09,03/01/2023,14:55:41.400,0,0,0,0,0,0,0,9999,9.771,
01/01/2000,00:01:08.12,-45.90,-16.60,-979.00,2.87,-1.05,0.40,24.30,-31.35,23.40,21.90,03/01/2023,14:55:41.500,0,0,0,0,0,0,0,9999,9.771,
01/01/2000,00:01:08.22,-50.29,-11.23,-976.56,2.51,0.78,2.69,26.70,-30.15,21.90,22.04,03/01/2023,14:55:41.600,0,0,0,0,0,0,0,9999,9.771,
01/01/2000,00:01:08.32,-61.04,-23.44,-965.33,3.43,0.05,1.50,26.70,-29.70,22.20,22.28,03/01/2023,14:55:41.700,0,0,0,0,0,0,0,9999,9.772,
01/01/2000,00:01:08.42,-44.43,-12.21,-980.47,0.92,-0.66,2.78,25.95,-30.45,25.05,22.09,03/01/2023,14:55:41.800,0,0,0,0,0,0,0,9999,9.771,
01/01/2000,00:01:08.52,-47.85,-19.04,-966.80,2.36,-1.96,1.44,24.45,-31.65,26.40,21.99,03/01/2023,14:55:41.900,0,0,0,0,0,0,0,9999,9.770,
01/01/2000,00:01:08.63,-67.38,-31.74,-968.26,3.33,-0.37,-0.03,27.75,-29.70,23.25,22.09,03/01/2023,14:55:42.000,0,0,0,0,0,0,0,9999,9.773,
01/01/2000,00:01:08.73,-38.57,-0.98,-959.47,2.70,-2.35,-0.78,27.15,-31.35,22.80,22.09,03/01/2023,14:55:42.100,0,0,0,0,0,0,0,9999,9.773,
01/01/2000,00:01:08.83,-49.80,-23.44,-973.14,4.50,-1.14,-0.31,24.45,-31.95,24.0,22.23,03/01/2023,14:55:42.200,0,0,0,0,0,0,0,9999,9.774,
01/01/2000,00:01:08.92,-55.18,-24.41,-974.12,2.24,-1.64,-0.04,27.60,-30.30,21.75,22.23,03/01/2023,14:55:42.300,0,0,0,0,0,0,0,9999,9.774,
01/01/2000,00:01:09.02,-58.11,-18.07,-972.17,0.21,0.51,-1.31,27.15,-29.85,23.40,22.09,03/01/2023,14:55:42.400,0,0,0,0,0,0,0,9999,9.774,
01/01/2000,00:01:09.12,-62.01,-29.79,-964.84,1.08,-0.98,-0.59,25.20,-32.40,24.30,21.90,03/01/2023,14:55:42.500,0,0,0,0,0,0,0,9999,9.775,
01/01/2000,00:01:09.22,-40.53,-21.97,-963.87,3.21,0.76,0.45,24.60,-32.55,23.85,22.04,03/01/2023,14:55:42.600,0,0,0,0,0,0,0,9999,9.775,
01/01/2000,00:01:09.32,-61.04,-24.41,-963.38,3.33,0.47,0.60,26.70,-30.90,22.20,21.56,03/01/2023,14:55:42.700,0,0,0,0,0,0,0,9999,9.775,
01/01/2000,00:01:09.42,-56.15,-24.90,-965.33,2.27,-0.27,0.43,28.05,-31.20,22.95,21.75,03/01/2023,14:55:42.800,0,0,0,0,0,0,0,9999,9.776,
01/01/2000,00:01:09.52,-64.45,-18.07,-958.98,3.19,0.55,0.72,25.20,-30.45,24.30,22.09,03/01/2023,14:55:42.900,0,0,0,0,0,0,0,9999,9.773,
01/01/2000,00:01:09.63,-44.43,-16.60,-979.98,3.02,2.90,-2.31,26.10,-33.30,23.85,22.23,03/01/2023,14:55:43.000,0,0,0,0,0,0,0,9999,9.775,
01/01/2000,00:01:09.73,-68.85,-15.14,-968.75,1.82,-3.12,0.89,25.35,-31.05,25.20,22.04,03/01/2023,14:55:43.100,0,0,0,0,0,0,0,9999,9.775,
01/01/2000,00:01:09.83,-51.27,-16.11,-969.24,1.81,1.06,1.03,27.15,-30.60,21.30,22.18,03/01/2023,14:55:43.200,0,0,0,0,0,0,0,9999,9.775,
01/01/2000,00:01:09.93,-60.06,-32.71,-940.92,5.92,1.38,1.02,25.35,-32.10,24.15,22.18,03/01/2023,14:55:43.300,0,0,0,0,0,0,0,9999,9.776,
01/01/2000,00:01:10.03,-56.15,-18.07,-982.91,2.72,0.99,0.93,26.70,-31.20,21.45,22.09,03/01/2023,14:55:43.400,0,0,0,0,0,0,0,9999,9.776,
01/01/2000,00:01:10.13,-60.55,-14.16,-944.34,3.48,-1.48,-1.02,27.90,-31.05,22.35,22.23,03/01/2023,14:55:43.500,0,0,0,0,0,0,0,9999,9.776,
01/01/2000,00:01:10.23,-44.43,-18.55,-974.12,2.82,0.38,1.56,23.25,-32.10,25.65,22.04,03/01/2023,14:55:43.600,0,0,0,0,0,0,0,9999,9.777,
01/01/2000,00:01:10.33,-66.89,-23.44,-982.42,2.0,-0.13,0.82,25.35,-31.35,24.15,21.85,03/01/2023,14:55:43.700,0,0,0,0,0,0,0,9999,9.777,
01/01/2000,00:01:10.43,-79.10,-22.95,-972.17,3.86,-0.21,-0.39,26.85,-29.55,22.35,22.09,03/01/2023,14:55:43.800,0,0,0,0,0,0,0,9999,9.779,
01/01/2000,00:01:10.53,-47.36,-22.95,-969.73,2.78,-0.53,2.80,27.30,-31.65,21.90,21.85,03/01/2023,14:55:43.900,0,0,0,0,0,0,0,9999,9.779,
01/01/2000,00:01:10.63,-55.18,-13.67,-961.43,1.96,0.02,0.97,25.20,-32.70,22.95,22.23,03/01/2023,14:55:44.000,0,0,0,0,0,0,0,9999,9.780,
01/01/2000,00:01:10.73,-55.18,-24.90,-973.14,3.32,-0.05,-2.86,27.90,-30.30,22.80,22.23,03/01/2023,14:55:44.100,0,0,0,0,0,0,0,9999,9.780,
01/01/2000,00:01:10.83,-58.11,-17.09,-964.36,3.82,-2.38,1.79,24.15,-34.20,26.10,22.04,03/01/2023,14:55:44.200,0,0,0,0,0,0,0,9999,9.780,
01/01/2000,00:01:10.93,-62.99,-28.81,-973.63,4.18,1.37,-2.99,25.05,-31.05,25.20,22.28,03/01/2023,14:55:44.300,0,0,0,0,0,0,0,9999,9.781,
01/01/2000,00:01:11.03,-54.69,-25.39,-974.61,6.21,-0.01,3.39,24.45,-31.20,24.30,22.23,03/01/2023,14:55:44.400,0,0,0,0,0,0,0,9999,9.781,
01/01/2000,00:01:11.13,-52.25,-24.90,-977.54,3.0,0.09,1.70,26.40,-29.55,23.10,22.09,03/01/2023,14:55:44.500,0,0,0,0,0,0,0,9999,9.778,
01/01/2000,00:01:11.22,-39.55,-19.04,-960.45,2.50,1.60,0.97,28.05,-31.95,21.45,22.09,03/01/2023,14:55:44.600,0,0,0,0,0,0,0,9999,9.781,
01/01/2000,00:01:11.32,-40.53,-8.30,-1007.81,0.79,2.99,0.79,27.30,-30.15,21.45,22.23,03/01/2023,14:55:44.700,0,0,0,0,0,0,0,9999,9.782,
01/01/2000,00:01:11.42,-88.87,-21.48,-959.47,0.62,-1.40,0.10,23.70,-31.95,25.80,21.90,03/01/2023,14:55:44.800,0,0,0,0,0,0,0,9999,9.782,
01/01/2000,00:01:11.52,-53.71,-20.02,-966.80,1.47,0.65,1.27,27.30,-31.20,23.25,22.18,03/01/2023,14:55:44.900,0,0,0,0,0,0,0,9999,9.778,
01/01/2000,00:01:11.63,-62.99,-18.07,-959.96,3.65,-0.92,1.18,27.30,-30.90,21.45,22.18,03/01/2023,14:55:45.000,0,0,0,0,0,0,0,9999,9.766,
01/01/2000,00:01:11.82,-62.50,-13.18,-969.24,2.08,-0.11,0.66,27.15,-30.30,21.75,22.09,03/01/2023,14:55:45.200,0,0,0,0,0,0,0,9999,9.769,
01/01/2000,00:01:11.92,-46.39,-23.93,-959.47,1.27,2.21,-0.44,25.50,-31.65,25.05,21.99,03/01/2023,14:55:45.300,0,0,0,0,0,0,0,9999,9.766,
01/01/2000,00:01:12.03,-52.25,-11.72,-967.29,0.95,1.36,-1.0,24.45,-33.15,24.30,22.28,03/01/2023,14:55:45.400,0,0,0,0,0,0,0,9999,9.768,
01/01/2000,00:01:12.13,-54.69,-23.44,-967.77,4.65,-1.16,-2.18,25.50,-31.65,25.35,21.90,03/01/2023,14:55:45.500,0,0,0,0,0,0,0,9999,9.768,
01/01/2000,00:01:12.23,-59.57,-27.34,-959.47,3.61,-2.45,2.02,25.50,-31.65,24.75,21.85,03/01/2023,14:55:45.600,0,0,0,0,0,0,0,9999,9.769,
01/01/2000,00:01:12.33,-61.04,-22.95,-967.77,1.30,1.73,-1.46,27.0,-31.65,22.20,22.18,03/01/2023,14:55:45.700,0,0,0,0,0,0,0,9999,9.769,
01/01/2000,00:01:12.43,-39.55,-13.18,-972.66,2.39,-0.96,2.90,26.70,-30.15,21.45,22.18,03/01/2023,14:55:45.800,0,0,0,0,0,0,0,9999,9.771,
01/01/2000,00:01:12.53,-57.62,-25.88,-981.93,0.63,-0.79,-0.62,25.80,-29.85,21.75,22.04,03/01/2023,14:55:45.900,0,0,0,0,0,0,0,9999,9.771,
01/01/2000,00:01:12.63,-58.59,-25.39,-961.43,5.17,-1.53,0.49,24.90,-31.65,24.30,22.09,03/01/2023,14:55:46.000,0,0,0,0,0,0,0,9999,9.772,
01/01/2000,00:01:12.73,-34.67,-15.63,-972.66,4.32,0.21,3.52,25.05,-32.55,23.85,22.28,03/01/2023,14:55:46.100,0,0,0,0,0,0,0,9999,9.772,
01/01/2000,00:01:12.83,-54.20,-16.60,-972.66,5.85,-1.34,0.19,26.40,-30.30,22.05,22.23,03/01/2023,14:55:46.200,0,0,0,0,0,0,0,9999,9.772,
01/01/2000,00:01:12.93,-57.13,-11.72,-953.61,3.63,0.74,1.70,25.80,-30.30,21.75,22.09,03/01/2023,14:55:46.300,0,0,0,0,0,0,0,9999,9.773,
01/01/2000,00:01:13.02,-56.64,-17.58,-969.73,1.34,0.55,0.89,24.90,-31.95,24.75,22.28,03/01/2023,14:55:46.400,0,0,0,0,0,0,0,9999,9.773,
01/01/2000,00:01:13.12,-61.52,-20.51,-960.45,5.08,0.14,-1.12,26.40,-31.05,21.75,22.37,03/01/2023,14:55:46.500,0,0,0,0,0,0,0,9999,9.773,
01/01/2000,00:01:13.22,-55.18,-12.70,-962.89,3.38,-1.63,2.47,25.35,-30.60,23.85,22.28,03/01/2023,14:55:46.600,0,0,0,0,0,0,0,9999,9.773,
01/01/2000,00:01:13.32,-48.83,-28.32,-976.07,3.19,0.79,-1.65,24.45,-32.70,24.30,22.09,03/01/2023,14:55:46.700,0,0,0,0,0,0,0,9999,9.774,
01/01/2000,00:01:13.42,-49.32,-15.63,-969.73,2.0,0.37,2.76,27.15,-31.35,22.05,22.23,03/01/2023,14:55:46.800,0,0,0,0,0,0,0,9999,9.774,
01/01/2000,00:01:13.52,-59.08,-17.58,-982.42,2.24,-0.77,-0.98,25.95,-30.90,21.90,22.04,03/01/2023,14:55:46.900,0,0,0,0,0,0,0,9999,9.772,
01/01/2000,00:01:13.63,-55.66,-24.90,-972.17,0.27,-0.21,-0.03,25.35,-29.85,21.30,22.23,03/01/2023,14:55:47.000,0,0,0,0,0,0,0,9999,9.775,
01/01/2000,00:01:13.73,-63.96,-23.93,-970.21,2.28,-0.51,-0.09,25.35,-32.55,23.40,22.37,03/01/2023,14:55:47.100,0,0,0,0,0,0,0,9999,9.775,
01/01/2000,00:01:13.83,-48.34,-15.14,-986.82,2.63,0.18,-0.52,25.80,-32.85,24.45,22.28,03/01/2023,14:55:47.200,0,0,0,0,0,0,0,9999,9.775,
01/01/2000,00:01:13.92,-70.80,-19.53,-980.96,0.90,-4.05,0.91,27.0,-30.45,22.20,22.18,03/01/2023,14:55:47.300,0,0,0,0,0,0,0,9999,9.776,
01/01/2000,00:01:14.02,-64.94,-26.86,-992.19,3.09,0.89,0.23,26.70,-30.15,21.15,22.42,03/01/2023,14:55:47.400,0,0,0,0,0,0,0,9999,9.776,
01/01/2000,00:01:14.12,-62.01,-10.74,-968.26,1.82,-1.89,0.31,26.40,-32.10,24.90,22.09,03/01/2023,14:55:47.500,0,0,0,0,0,0,0,9999,9.776,
01/01/2000,00:01:14.22,-48.34,-48.34,-997.07,0.28,1.51,0.43,25.95,-29.70,22.65,21.99,03/01/2023,14:55:47.600,0,0,0,0,0,0,0,9999,9.777,
01/01/2000,00:01:14.32,-50.78,-14.16,-972.66,1.44,-0.76,-1.37,24.30,-31.80,25.20,22.57,03/01/2023,14:55:47.700,0,0,0,0,0,0,0,9999,9.777,
01/01/2000,00:01:14.42,-71.29,-17.58,-977.05,0.62,1.86,-1.20,24.45,-33.90,24.0,22.37,03/01/2023,14:55:47.800,0,0,0,0,0,0,0,9999,9.777,
01/01/2000,00:01:14.52,-53.71,-8.79,-966.31,1.47,-0.48,-0.11,25.80,-31.05,24.90,22.52,03/01/2023,14:55:47.900,0,0,0,0,0,0,0,9999,9.775,
01/01/2000,00:01:14.63,-43.95,-25.88,-971.68,2.36,0.21,-0.88,26.40,-31.05,21.75,22.04,03/01/2023,14:55:48.000,0,0,0,0,0,0,0,9999,9.778,
01/01/2000,00:01:14.73,-56.64,-21.00,-970.21,0.30,0.41,0.83,27.0,-31.20,21.45,22.28,03/01/2023,14:55:48.100,0,0,0,0,0,0,0,9999,9.778,
01/01/2000,00:01:14.83,-61.04,-17.58,-973.14,4.0,-1.84,1.53,24.30,-31.05,24.45,22.28,03/01/2023,14:55:48.200,0,0,0,0,0,0,0,9999,9.779,
01/01/2000,00:01:14.92,-59.08,-28.32,-962.40,5.33,-0.98,-0.37,24.30,-31.80,23.85,22.28,03/01/2023,14:55:48.300,0,0,0,0,0,0,0,9999,9.779,
01/01/2000,00:01:15.02,-58.59,-19.53,-975.10,2.61,-1.64,0.18,25.80,-32.55,22.80,22.09,03/01/2023,14:55:48.400,0,0,0,0,0,0,0,9999,9.779,
01/01/2000,00:01:15.12,-45.90,-20.51,-955.57,4.17,-0.52,0.67,27.15,-30.60,22.35,22.23,03/01/2023,14:55:48.500,0,0,0,0,0,0,0,9999,9.779,
01/01/2000,00:01:15.22,-46.39,-20.02,-976.56,3.96,-2.22,1.02,25.35,-32.10,23.85,22.09,03/01/2023,14:55:48.600,0,0,0,0,0,0,0,9999,9.780,
01/01/2000,00:01:15.32,-60.55,-8.30,-969.24,4.09,0.34,0.50,26.85,-29.25,22.05,22.18,03/01/2023,14:55:48.700,0,0,0,0,0,0,0,9999,9.780,
01/01/2000,00:01:15.42,-58.11,-32.23,-973.63,3.24,-1.90,2.22,26.85,-30.60,21.30,22.04,03/01/2023,14:55:48.800,0,0,0,0,0,0,0,9999,9.780,
01/01/2000,00:01:15.52,-59.08,-7.81,-984.86,3.64,0.27,2.56,26.25,-31.95,24.75,22.28,03/01/2023,14:55:48.900,0,0,0,0,0,0,0,9999,9.778,
01/01/2000,00:01:15.63,-46.39,-24.41,-963.87,-0.54,1.79,-2.66,26.10,-30.30,22.35,22.28,03/01/2023,14:55:49.000,0,0,0,0,0,0,0,9999,9.780,
01/01/2000,00:01:15.73,-49.32,-24.90,-970.21,1.37,-1.32,-0.89,26.10,-31.05,21.75,22.23,03/01/2023,14:55:49.100,0,0,0,0,0,0,0,9999,9.781,
01/01/2000,00:01:15.83,-64.94,-14.65,-973.14,1.69,-0.14,-0.32,26.10,-30.60,21.75,22.18,03/01/2023,14:55:49.200,0,0,0,0,0,0,0,9999,9.782,
01/01/2000,00:01:15.93,-54.69,-25.39,-965.82,3.24,-0.67,0.21,26.25,-30.45,23.70,22.23,03/01/2023,14:55:49.300,0,0,0,0,0,0,0,9999,9.782,
01/01/2000,00:01:16.03,-48.34,-31.25,-970.21,4.28,-1.18,-2.28,23.70,-31.65,25.80,22.23,03/01/2023,14:55:49.400,0,0,0,0,0,0,0,9999,9.782,
01/01/2000,00:01:16.13,-65.43,-18.55,-968.26,3.73,-1.22,0.31,27.0,-30.90,24.75,22.37,03/01/2023,14:55:49.500,0,0,0,0,0,0,0,9999,9.782,
01/01/2000,00:01:16.23,-36.62,-19.53,-964.84,2.11,-1.53,0.92,26.70,-29.70,21.15,22.57,03/01/2023,14:55:49.600,0,0,0,0,0,0,0,9999,9.783,
01/01/2000,00:01:16.32,-50.78,-20.51,-965.33,0.90,-1.68,0.56,25.95,-31.95,23.70,22.37,03/01/2023,14:55:49.700,0,0,0,0,0,0,0,9999,9.783,
01/01/2000,00:01:16.42,-51.27,-16.60,-965.33,1.85,2.36,1.31,26.70,-31.20,22.65,22.28,03/01/2023,14:55:49.800,0,0,0,0,0,0,0,9999,9.783,
01/01/2000,00:01:16.52,-67.87,-32.71,-949.22,0.60,1.44,-2.08,26.25,-31.20,21.15,22.37,03/01/2023,14:55:49.900,0,0,0,0,0,0,0,9999,9.784,
01/01/2000,00:01:16.62,-55.18,-29.79,-973.63,3.29,-3.11,-1.53,25.05,-31.80,24.45,22.04,03/01/2023,14:55:50.000,0,0,0,0,0,0,0,9999,9.784,
01/01/2000,00:01:16.72,-53.22,-27.83,-961.43,0.15,2.01,0.32,25.80,-31.80,25.20,22.09,03/01/2023,14:55:50.100,0,0,0,0,0,0,0,9999,9.784,
01/01/2000,00:01:16.82,-58.59,-11.23,-977.54,3.31,-1.76,0.44,27.15,-30.60,22.35,22.52,03/01/2023,14:55:50.200,0,0,0,0,0,0,0,9999,9.785,
01/01/2000,00:01:16.92,-69.82,-21.97,-960.94,0.15,-1.21,2.40,25.05,-29.85,23.10,22.09,03/01/2023,14:55:50.300,0,0,0,0,0,0,0,9999,9.785,
01/01/2000,00:01:17.02,-62.01,-23.44,-976.07,-0.27,1.97,1.04,27.90,-31.05,22.05,22.37,03/01/2023,14:55:50.400,0,0,0,0,0,0,0,9999,9.785,
01/01/2000,00:01:17.12,-54.20,-10.74,-972.17,2.53,0.80,-0.31,24.15,-32.70,25.35,22.18,03/01/2023,14:55:50.500,0,0,0,0,0,0,0,9999,9.783,
01/01/2000,00:01:17.23,-55.66,-20.51,-977.05,3.18,-1.73,0.02,27.90,-30.60,22.05,22.28,03/01/2023,14:55:50.600,0,0,0,0,0,0,0,9999,9.784,
01/01/2000,00:01:17.33,-51.76,-15.63,-975.59,0.06,-1.41,-0.28,24.90,-32.40,25.35,22.57,03/01/2023,14:55:50.700,0,0,0,0,0,0,0,9999,9.785,
01/01/2000,00:01:17.43,-50.29,-18.55,-976.56,2.87,-1.31,1.72,26.70,-30.45,20.85,22.28,03/01/2023,14:55:50.800,0,0,0,0,0,0,0,9999,9.785,
01/01/2000,00:01:17.53,-56.15,-22.46,-967.77,-1.85,1.02,0.16,24.15,-30.15,24.75,22.23,03/01/2023,14:55:50.900,0,0,0,0,0,0,0,9999,9.784,
01/01/2000,00:01:17.63,-41.02,-15.14,-942.38,1.89,-0.82,-4.94,27.15,-29.85,22.05,22.28,03/01/2023,14:55:51.000,0,0,0,0,0,0,0,9999,9.786,
01/01/2000,00:01:17.73,-51.27,-21.00,-971.19,0.50,-0.78,0.76,26.70,-30.90,21.90,22.28,03/01/2023,14:55:51.100,0,0,0,0,0,0,0,9999,9.786,
01/01/2000,00:01:17.83,-47.36,-25.88,-960.94,1.63,-2.31,-1.98,24.30,-32.55,24.45,22.37,03/01/2023,14:55:51.200,0,0,0,0,0,0,0,9999,9.786,
01/01/2000,00:01:17.93,-56.64,-11.23,-971.68,0.73,-1.98,0.95,25.20,-30.45,23.25,22.42,03/01/2023,14:55:51.300,0,0,0,0,0,0,0,9999,9.786,
01/01/2000,00:01:18.03,-72.75,-18.55,-966.80,2.12,-1.27,-2.69,27.75,-30.45,22.20,22.52,03/01/2023,14:55:51.400,0,0,0,0,0,0,0,9999,9.788,
01/01/2000,00:01:18.13,-44.43,-22.95,-978.03,-0.11,-1.23,1.63,26.85,-29.85,22.80,22.28,03/01/2023,14:55:51.500,0,0,0,0,0,0,0,9999,9.788,
01/01/2000,00:01:18.23,-57.13,-11.23,-973.63,5.62,0.03,-0.21,25.80,-32.55,22.80,22.28,03/01/2023,14:55:51.600,0,0,0,0,0,0,0,9999,9.789,
01/01/2000,00:01:18.33,-48.34,-20.51,-950.68,5.27,1.63,1.79,27.30,-30.15,22.65,22.52,03/01/2023,14:55:51.700,0,0,0,0,0,0,0,9999,9.789,
01/01/2000,00:01:18.43,-50.29,-20.51,-977.05,1.93,0.46,0.85,24.45,-32.70,24.75,22.52,03/01/2023,14:55:51.800,0,0,0,0,0,0,0,9999,9.789,
01/01/2000,00:01:18.53,-55.18,-19.53,-967.29,3.38,-0.40,2.22,25.50,-31.65,24.0,22.04,03/01/2023,14:55:51.900,0,0,0,0,0,0,0,9999,9.789,
01/01/2000,00:01:18.63,-48.34,-23.93,-968.26,0.26,2.55,1.47,24.90,-31.95,23.25,22.18,03/01/2023,14:55:52.000,0,0,0,0,0,0,0,9999,9.790,
01/01/2000,00:01:18.72,-67.87,-31.25,-960.94,2.54,-0.05,1.22,27.60,-31.80,21.75,22.61,03/01/2023,14:55:52.100,0,0,0,0,0,0,0,9999,9.790,
01/01/2000,00:01:18.82,-58.11,-21.48,-954.59,3.76,1.05,-0.32,26.70,-31.65,22.65,22.28,03/01/2023,14:55:52.200,0,0,0,0,0,0,0,9999,9.790,
01/01/2000,00:01:18.92,-54.69,-19.04,-949.71,4.60,-1.38,5.08,27.0,-31.20,22.20,22.57,03/01/2023,14:55:52.300,0,0,0,0,0,0,0,9999,9.790,
01/01/2000,00:01:19.02,-58.59,-21.48,-981.45,4.47,1.89,-0.98,24.0,-31.35,24.45,22.28,03/01/2023,14:55:52.400,0,0,0,0,0,0,0,9999,9.791,
01/01/2000,00:01:19.12,-53.22,-19.53,-957.52,3.03,-1.13,2.36,24.90,-30.90,24.30,22.42,03/01/2023,14:55:52.500,0,0,0,0,0,0,0,9999,9.791,
01/01/2000,00:01:19.22,-32.23,-40.04,-982.42,2.36,2.83,1.84,26.40,-30.30,21.0,22.52,03/01/2023,14:55:52.600,0,0,0,0,0,0,0,9999,9.791,
01/01/2000,00:01:19.32,-69.34,-13.67,-955.08,3.93,1.24,2.75,24.45,-31.20,24.0,22.42,03/01/2023,14:55:52.700,0,0,0,0,0,0,0,9999,9.792,
01/01/2000,00:01:19.42,-50.29,-27.83,-974.12,1.27,-0.37,1.51,27.15,-31.35,22.80,22.57,03/01/2023,14:55:52.800,0,0,0,0,0,0,0,9999,9.789,
01/01/2000,00:01:19.53,-68.85,-22.95,-970.21,6.08,-1.22,1.68,26.85,-31.05,22.05,22.28,03/01/2023,14:55:52.900,0,0,0,0,0,0,0,9999,9.791,
01/01/2000,00:01:19.63,-49.80,-22.95,-970.21,1.30,-0.46,0.26,23.25,-32.10,23.85,22.23,03/01/2023,14:55:53.000,0,0,0,0,0,0,0,9999,9.791,
01/01/2000,00:01:19.73,-57.62,-14.16,-963.38,2.40,0.75,-0.80,25.50,-32.40,24.75,22.28,03/01/2023,14:55:53.100,0,0,0,0,0,0,0,9999,9.791,
01/01/2000,00:01:19.83,-61.04,-27.34,-977.05,3.06,-1.77,2.14,26.70,-30.45,21.15,22.52,03/01/2023,14:55:53.200,0,0,0,0,0,0,0,9999,9.792,
01/01/2000,00:01:19.93,-54.69,-32.23,-968.75,1.19,-0.10,-0.21,27.75,-30.45,23.25,22.57,03/01/2023,14:55:53.300,0,0,0,0,0,0,0,9999,9.793,
01/01/2000,00:01:20.03,-57.13,-26.37,-973.14,-0.03,-1.39,-0.40,26.85,-30.30,20.70,22.52,03/01/2023,14:55:53.400,0,0,0,0,0,0,0,9999,9.793,
01/01/2000,00:01:20.13,-52.25,-24.41,-970.21,0.49,0.46,0.25,24.90,-32.70,26.40,22.37,03/01/2023,14:55:53.500,0,0,0,0,0,0,0,9999,9.794,
01/01/2000,00:01:20.23,-49.32,-13.18,-971.19,3.53,2.37,0.85,24.15,-31.20,25.05,22.28,03/01/2023,14:55:53.600,0,0,0,0,0,0,0,9999,9.794,
01/01/2000,00:01:20.33,-61.04,-29.30,-966.80,4.18,0.56,0.11,26.25,-29.70,21.45,22.28,03/01/2023,14:55:53.700,0,0,0,0,0,0,0,9999,9.794,
01/01/2000,00:01:20.43,-50.78,-10.74,-962.40,3.39,0.21,1.62,27.30,-31.20,22.65,22.09,03/01/2023,14:55:53.800,0,0,0,0,0,0,0,9999,9.795,
01/01/2000,00:01:20.52,-53.22,-14.16,-966.31,1.22,2.27,-1.40,24.60,-32.55,24.90,22.57,03/01/2023,14:55:53.900,0,0,0,0,0,0,0,9999,9.795,
01/01/2000,00:01:20.62,-56.15,-11.72,-963.38,3.81,1.38,-0.44,27.60,-31.35,21.30,22.37,03/01/2023,14:55:54.000,0,0,0,0,0,0,0,9999,9.795,
01/01/2000,00:01:20.72,-39.06,-3.91,-971.19,3.40,-1.23,0.72,24.90,-31.95,24.0,22.23,03/01/2023,14:55:54.100,0,0,0,0,0,0,0,9999,9.795,
01/01/2000,00:01:20.82,-46.39,-20.51,-963.87,0.98,-0.08,3.04,24.60,-31.80,24.15,22.57,03/01/2023,14:55:54.200,0,0,0,0,0,0,0,9999,9.796,
01/01/2000,00:01:20.92,-64.94,-12.21,-973.63,1.54,2.32,2.77,26.25,-30.90,21.45,22.37,03/01/2023,14:55:54.300,0,0,0,0,0,0,0,9999,9.796,
01/01/2000,00:01:21.02,-50.78,-20.51,-966.31,2.41,-0.63,-0.24,26.70,-30.90,21.90,22.37,03/01/2023,14:55:54.400,0,0,0,0,0,0,0,9999,9.796,
01/01/2000,00:01:21.12,-54.69,-16.11,-974.12,0.57,0.91,3.60,27.15,-30.30,22.35,22.28,03/01/2023,14:55:54.500,0,0,0,0,0,0,0,9999,9.796,
01/01/2000,00:01:21.22,-52.25,-16.60,-977.54,4.49,0.35,1.63,26.70,-33.15,25.05,22.28,03/01/2023,14:55:54.600,0,0,0,0,0,0,0,9999,9.797,
01/01/2000,00:01:21.32,-46.88,-18.55,-974.12,2.80,-0.53,2.63,25.35,-31.35,24.90,22.52,03/01/2023,14:55:54.700,0,0,0,0,0,0,0,9999,9.794,
01/01/2000,00:01:21.43,-67.38,-17.09,-972.17,3.51,1.96,0.39,26.70,-29.40,22.65,22.42,03/01/2023,14:55:54.800,0,0,0,0,0,0,0,9999,9.797,
01/01/2000,00:01:21.53,-64.45,-15.14,-975.59,4.26,-0.80,3.81,26.85,-28.80,22.35,22.52,03/01/2023,14:55:54.900,0,0,0,0,0,0,0,9999,9.797,
01/01/2000,00:01:21.63,-47.36,-25.88,-970.70,2.34,1.17,-0.84,25.95,-31.95,24.0,22.23,03/01/2023,14:55:55.000,0,0,0,0,0,0,0,9999,9.798,
01/01/2000,00:01:21.73,-55.18,-24.41,-970.70,0.69,-1.42,-2.45,27.75,-31.95,22.20,22.42,03/01/2023,14:55:55.100,0,0,0,0,0,0,0,9999,9.798,
01/01/2000,00:01:21.83,-63.96,-15.14,-968.75,5.84,-0.27,1.03,26.70,-31.65,21.45,22.28,03/01/2023,14:55:55.200,0,0,0,0,0,0,0,9999,9.798,
01/01/2000,00:01:21.92,-61.04,-27.83,-976.07,2.38,-0.59,1.11,23.10,-31.20,26.40,22.71,03/01/2023,14:55:55.300,0,0,0,0,0,0,0,9999,9.798,
01/01/2000,00:01:22.02,-62.50,-9.77,-976.56,1.75,-0.10,1.78,26.85,-32.55,23.85,22.57,03/01/2023,14:55:55.400,0,0,0,0,0,0,0,9999,9.799,
01/01/2000,00:01:22.12,-41.50,-18.55,-966.80,7.05,0.27,-1.25,26.70,-31.65,22.20,22.52,03/01/2023,14:55:55.500,0,0,0,0,0,0,0,9999,9.799,
01/01/2000,00:01:22.22,-48.83,-21.48,-970.70,2.11,1.42,-0.23,26.10,-30.30,22.05,22.61,03/01/2023,14:55:55.600,0,0,0,0,0,0,0,9999,9.799,
01/01/2000,00:01:22.32,-52.73,-9.28,-967.29,3.46,0.53,1.27,25.35,-31.05,24.90,22.42,03/01/2023,14:55:55.700,0,0,0,0,0,0,0,9999,9.786,
01/01/2000,00:01:22.52,-52.25,-18.55,-964.84,2.82,1.08,2.53,22.65,-32.70,24.75,22.71,03/01/2023,14:55:55.900,0,0,0,0,0,0,0,9999,9.784,
01/01/2000,00:01:22.63,-51.27,-21.48,-969.73,3.82,0.02,1.10,27.15,-30.60,21.30,22.28,03/01/2023,14:55:56.000,0,0,0,0,0,0,0,9999,9.786,
01/01/2000,00:01:22.73,-56.15,-22.46,-979.98,2.39,0.52,0.14,27.75,-30.45,21.90,22.52,03/01/2023,14:55:56.100,0,0,0,0,0,0,0,9999,9.787,
01/01/2000,00:01:22.83,-52.73,-18.07,-970.70,5.35,-0.50,5.23,26.70,-29.70,22.95,22.28,03/01/2023,14:55:56.200,0,0,0,0,0,0,0,9999,9.787,
01/01/2000,00:01:22.93,-57.13,-21.00,-974.12,1.38,-1.04,-1.18,26.70,-31.95,22.95,22.42,03/01/2023,14:55:56.300,0,0,0,0,0,0,0,9999,9.787,
01/01/2000,00:01:23.03,-63.96,-20.02,-967.29,3.39,-0.30,2.72,26.25,-30.45,22.20,22.57,03/01/2023,14:55:56.400,0,0,0,0,0,0,0,9999,9.789,
01/01/2000,00:01:23.13,-66.41,-20.51,-959.47,2.08,-0.79,-0.53,25.05,-31.05,23.85,22.76,03/01/2023,14:55:56.500,0,0,0,0,0,0,0,9999,9.789,
01/01/2000,00:01:23.23,-48.83,-14.16,-962.40,3.46,-0.43,1.77,25.50,-31.20,24.0,22.57,03/01/2023,14:55:56.600,0,0,0,0,0,0,0,9999,9.789,
01/01/2000,00:01:23.33,-57.13,-22.95,-981.45,3.48,-3.10,0.47,25.95,-30.45,21.15,22.61,03/01/2023,14:55:56.700,0,0,0,0,0,0,0,9999,9.790,
01/01/2000,00:01:23.43,-51.76,-23.44,-971.68,3.64,-3.02,-0.45,26.85,-31.35,20.25,22.42,03/01/2023,14:55:56.800,0,0,0,0,0,0,0,9999,9.790,
01/01/2000,00:01:23.53,-66.41,-23.93,-973.14,2.11,0.41,-1.60,27.30,-29.70,22.20,22.71,03/01/2023,14:55:56.900,0,0,0,0,0,0,0,9999,9.790,
01/01/2000,00:01:23.63,-74.71,-18.55,-961.43,1.23,1.37,-0.58,24.90,-32.40,24.0,22.52,03/01/2023,14:55:57.000,0,0,0,0,0,0,0,9999,9.790,
01/01/2000,00:01:23.72,-58.11,-26.86,-954.10,0.58,-0.08,1.29,25.80,-32.10,23.85,22.57,03/01/2023,14:55:57.100,0,0,0,0,0,0,0,9999,9.791,
01/01/2000,00:01:23.82,-52.25,-25.88,-972.17,2.47,0.63,0.14,24.15,-31.65,24.0,22.76,03/01/2023,14:55:57.200,0,0,0,0,0,0,0,9999,9.791,
01/01/2000,00:01:23.92,-60.55,-18.07,-972.66,-0.35,0.37,-0.44,24.60,-30.30,24.15,22.57,03/01/2023,14:55:57.300,0,0,0,0,0,0,0,9999,9.791,
01/01/2000,00:01:24.02,-66.89,-23.93,-979.98,3.65,0.28,1.58,25.35,-30.60,22.80,22.57,03/01/2023,14:55:57.400,0,0,0,0,0,0,0,9999,9.791,
01/01/2000,00:01:24.12,-58.11,-24.90,-960.45,4.37,2.05,0.82,27.0,-29.70,22.65,22.81,03/01/2023,14:55:57.500,0,0,0,0,0,0,0,9999,9.792,
01/01/2000,00:01:24.22,-53.71,-21.48,-972.66,3.24,-2.41,-0.53,26.25,-31.20,22.95,22.71,03/01/2023,14:55:57.600,0,0,0,0,0,0,0,9999,9.792,
01/01/2000,00:01:24.32,-57.13,-26.86,-967.77,3.29,-0.08,-1.08,24.60,-30.30,24.15,22.42,03/01/2023,14:55:57.700,0,0,0,0,0,0,0,9999,9.790,
01/01/2000,00:01:24.43,-61.04,-9.28,-962.40,-0.58,0.85,-0.64,26.85,-29.85,21.30,22.61,03/01/2023,14:55:57.800,0,0,0,0,0,0,0,9999,9.792,
01/01/2000,00:01:24.53,-55.66,-21.97,-973.63,3.81,2.46,-0.34,26.25,-30.45,21.45,22.57,03/01/2023,14:55:57.900,0,0,0,0,0,0,0,9999,9.793,
01/01/2000,00:01:24.63,-52.25,-36.13,-972.66,3.87,0.01,0.89,27.0,-30.15,21.45,22.57,03/01/2023,14:55:58.000,0,0,0,0,0,0,0,9999,9.793,
01/01/2000,00:01:24.73,-41.50,-19.53,-965.33,1.15,-0.75,-0.99,25.35,-31.80,23.85,22.42,03/01/2023,14:55:58.100,0,0,0,0,0,0,0,9999,9.793,
01/01/2000,00:01:24.83,-60.06,-21.48,-970.70,3.11,0.03,0.27,26.85,-30.60,22.80,22.71,03/01/2023,14:55:58.200,0,0,0,0,0,0,0,9999,9.793,
01/01/2000,00:01:24.93,-46.39,-26.37,-966.31,4.65,-0.05,1.18,25.80,-31.80,23.40,22.42,03/01/2023,14:55:58.300,0,0,0,0,0,0,0,9999,9.794,
01/01/2000,00:01:25.03,-55.66,-21.00,-970.70,1.45,0.16,0.10,25.35,-32.55,23.85,22.28,03/01/2023,14:55:58.400,0,0,0,0,0,0,0,9999,9.794,
01/01/2000,00:01:25.13,-53.71,-22.95,-973.63,1.11,-0.32,0.57,25.20,-31.95,23.25,22.71,03/01/2023,14:55:58.500,0,0,0,0,0,0,0,9999,9.794,
01/01/2000,00:01:25.22,-68.85,-29.79,-965.82,0.38,2.10,0.64,27.15,-29.55,22.80,22.71,03/01/2023,14:55:58.600,0,0,0,0,0,0,0,9999,9.794,
01/01/2000,00:01:25.32,-60.06,-34.67,-968.26,2.53,-0.76,0.87,26.85,-30.60,21.0,22.57,03/01/2023,14:55:58.700,0,0,0,0,0,0,0,9999,9.795,
01/01/2000,00:01:25.42,-63.96,-15.14,-975.10,1.84,0.46,-1.80,24.30,-31.05,24.15,22.61,03/01/2023,14:55:58.800,0,0,0,0,0,0,0,9999,9.795,
01/01/2000,00:01:25.52,-44.43,-32.71,-979.98,0.78,-0.10,-1.08,25.05,-32.10,23.85,22.57,03/01/2023,14:55:58.900,0,0,0,0,0,0,0,9999,9.792,
01/01/2000,00:01:25.63,-47.85,-27.34,-971.19,-0.39,-0.05,0.82,25.80,-30.60,22.80,22.42,03/01/2023,14:55:59.000,0,0,0,0,0,0,0,9999,9.794,
01/01/2000,00:01:25.73,-67.38,-22.95,-977.05,2.98,-0.60,-0.53,26.10,-31.05,21.75,22.52,03/01/2023,14:55:59.100,0,0,0,0,0,0,0,9999,9.794,
01/01/2000,00:01:25.83,-62.99,-25.88,-973.14,0.82,-0.17,4.16,24.15,-30.15,25.80,22.61,03/01/2023,14:55:59.200,0,0,0,0,0,0,0,9999,9.795,
01/01/2000,00:01:25.93,-61.04,-21.48,-968.26,5.63,-1.02,1.40,26.70,-30.90,21.45,22.61,03/01/2023,14:55:59.300,0,0,0,0,0,0,0,9999,9.796,
01/01/2000,00:01:26.03,-71.78,-25.88,-969.24,2.37,-1.19,-1.60,25.50,-31.95,24.75,22.76,03/01/2023,14:55:59.400,0,0,0,0,0,0,0,9999,9.796,
01/01/2000,00:01:26.13,-57.13,-18.07,-976.56,-0.08,1.05,0.01,25.35,-30.60,23.40,22.52,03/01/2023,14:55:59.500,0,0,0,0,0,0,0,9999,9.797,
01/01/2000,00:01:26.23,-58.11,-15.14,-968.26,-0.24,-0.03,0.27,25.50,-32.70,22.95,22.76,03/01/2023,14:55:59.600,0,0,0,0,0,0,0,9999,9.797,
01/01/2000,00:01:26.33,-65.92,-12.21,-970.21,2.14,0.24,1.50,25.50,-31.20,21.45,22.61,03/01/2023,14:55:59.700,0,0,0,0,0,0,0,9999,9.797,
01/01/2000,00:01:26.43,-49.32,-21.00,-968.26,3.39,0.76,-1.38,27.0,-30.45,21.90,22.76,03/01/2023,14:55:59.800,0,0,0,0,0,0,0,9999,9.797,
01/01/2000,00:01:26.52,-50.78,-21.00,-953.61,-0.02,-3.91,-3.44,24.45,-31.95,24.0,22.57,03/01/2023,14:55:59.900,0,0,0,0,0,0,0,9999,9.798,
01/01/2000,00:01:26.62,-50.29,-14.65,-976.07,1.42,-0.85,0.47,23.55,-32.55,25.20,22.57,03/01/2023,14:56:00.000,0,0,0,0,0,0,0,9999,9.798,
01/01/2000,00:01:26.72,-52.73,-29.30,-967.77,5.93,-0.25,1.21,25.80,-32.85,24.90,22.71,03/01/2023,14:56:00.100,0,0,0,0,0,0,0,9999,9.798,
01/01/2000,00:01:26.82,-48.34,-7.81,-962.89,2.34,-2.36,-0.26,26.70,-30.15,22.20,22.61,03/01/2023,14:56:00.200,0,0,0,0,0,0,0,9999,9.798,
01/01/2000,00:01:26.92,-53.71,-24.41,-963.38,3.59,-0.33,0.02,25.80,-32.10,25.20,22.90,03/01/2023,14:56:00.300,0,0,0,0,0,0,0,9999,9.799,
01/01/2000,00:01:27.02,-43.46,-35.64,-962.40,0.99,0.91,2.10,26.10,-29.85,21.75,22.81,03/01/2023,14:56:00.400,0,0,0,0,0,0,0,9999,9.799,
01/01/2000,00:01:27.12,-54.69,-14.65,-955.57,0.48,0.25,-0.53,27.30,-31.20,21.90,22.57,03/01/2023,14:56:00.500,0,0,0,0,0,0,0,9999,9.799,
01/01/2000,00:01:27.22,-54.20,-19.04,-960.45,1.21,-0.50,1.64,25.05,-31.80,24.45,22.76,03/01/2023,14:56:00.600,0,0,0,0,0,0,0,9999,9.786,
01/01/2000,00:01:27.42,-64.45,-28.81,-976.56,2.24,1.22,0.66,27.90,-31.80,21.75,22.81,03/01/2023,14:56:00.800,0,0,0,0,0,0,0,9999,9.786,
01/01/2000,00:01:27.52,-40.53,-29.30,-965.33,3.11,1.22,-0.71,26.40,-29.85,23.85,22.57,03/01/2023,14:56:00.900,0,0,0,0,0,0,0,9999,9.786,
01/01/2000,00:01:27.63,-60.06,-27.83,-972.17,2.37,-1.88,-2.08,27.15,-31.35,23.10,22.76,03/01/2023,14:56:01.000,0,0,0,0,0,0,0,9999,9.788,
01/01/2000,00:01:27.73,-52.73,-18.07,-950.68,2.40,-0.41,-1.05,25.05,-34.05,26.25,22.71,03/01/2023,14:56:01.100,0,0,0,0,0,0,0,9999,9.789,
01/01/2000,00:01:27.83,-57.13,-13.18,-970.21,4.78,0.67,-0.27,24.0,-32.10,25.65,22.71,03/01/2023,14:56:01.200,0,0,0,0,0,0,0,9999,9.775,
01/01/2000,00:01:28.02,-52.25,-16.60,-972.66,2.56,0.08,-0.34,27.30,-29.70,22.20,22.71,03/01/2023,14:56:01.400,0,0,0,0,0,0,0,9999,9.775,
01/01/2000,00:01:28.12,-64.94,-21.97,-966.31,0.07,2.01,0.33,26.85,-31.05,22.80,22.76,03/01/2023,14:56:01.500,0,0,0,0,0,0,0,9999,9.778,
01/01/2000,00:01:28.22,-58.11,-28.32,-971.68,3.52,-0.73,-0.21,25.05,-32.10,23.10,22.52,03/01/2023,14:56:01.600,0,0,0,0,0,0,0,9999,9.778,
01/01/2000,00:01:28.32,-66.41,-15.14,-970.21,4.51,-1.54,0.97,25.35,-31.35,23.40,22.52,03/01/2023,14:56:01.700,0,0,0,0,0,0,0,9999,9.778,
01/01/2000,00:01:28.42,-53.71,-18.55,-961.43,0.45,-1.50,-1.07,25.50,-32.70,24.0,22.61,03/01/2023,14:56:01.800,0,0,0,0,0,0,0,9999,9.779,
01/01/2000,00:01:28.52,-62.01,-16.11,-967.77,1.23,1.35,1.30,25.80,-30.30,21.75,22.57,03/01/2023,14:56:01.900,0,0,0,0,0,0,0,9999,9.777,
01/01/2000,00:01:28.63,-60.06,-21.00,-967.29,1.65,-3.11,-0.10,26.10,-29.85,21.30,22.76,03/01/2023,14:56:02.000,0,0,0,0,0,0,0,9999,9.779,
01/01/2000,00:01:28.73,-51.76,-1.95,-963.38,3.28,-0.92,1.83,28.05,-30.90,21.90,22.76,03/01/2023,14:56:02.100,0,0,0,0,0,0,0,9999,9.779,
01/01/2000,00:01:28.83,-60.55,-14.65,-977.54,0.74,0.95,1.79,24.60,-32.55,23.85,22.81,03/01/2023,14:56:02.200,0,0,0,0,0,0,0,9999,9.780,
01/01/2000,00:01:28.93,-57.62,-26.86,-984.38,2.88,0.95,1.73,25.20,-31.95,24.75,22.90,03/01/2023,14:56:02.300,0,0,0,0,0,0,0,9999,9.780,
01/01/2000,00:01:29.03,-52.73,-30.76,-957.52,4.50,0.60,1.22,25.20,-31.20,24.0,22.81,03/01/2023,14:56:02.400,0,0,0,0,0,0,0,9999,9.780,
01/01/2000,00:01:29.13,-50.78,-28.81,-986.82,2.85,-0.94,1.18,26.25,-30.45,22.20,22.81,03/01/2023,14:56:02.500,0,0,0,0,0,0,0,9999,9.767,
01/01/2000,00:01:29.33,-62.01,-12.70,-971.19,5.31,-1.94,-2.44,26.40,-32.55,21.75,22.71,03/01/2023,14:56:02.700,0,0,0,0,0,0,0,9999,9.769,
01/01/2000,00:01:29.42,-48.83,-4.39,-979.98,3.17,0.29,-1.40,26.10,-31.80,23.85,22.81,03/01/2023,14:56:02.800,0,0,0,0,0,0,0,9999,9.770,
01/01/2000,00:01:29.52,-44.92,-10.74,-956.54,1.27,0.54,2.17,24.60,-31.80,23.85,22.81,03/01/2023,14:56:02.900,0,0,0,0,0,0,0,9999,9.770,
01/01/2000,00:01:29.62,-62.50,-19.04,-963.38,-0.29,1.02,-1.13,25.95,-30.45,21.90,22.76,03/01/2023,14:56:03.000,0,0,0,0,0,0,0,9999,9.770,
01/01/2000,00:01:29.72,-49.32,-21.48,-969.73,1.98,-0.21,1.85,26.25,-31.20,22.65,22.61,03/01/2023,14:56:03.100,0,0,0,0,0,0,0,9999,9.770,
01/01/2000,00:01:29.82,-58.59,-27.83,-958.01,-0.24,1.35,1.97,25.50,-31.95,24.75,22.61,03/01/2023,14:56:03.200,0,0,0,0,0,0,0,9999,9.771,
01/01/2000,00:01:29.92,-51.27,-30.76,-970.21,0.06,-2.70,0.56,24.60,-30.30,24.45,22.90,03/01/2023,14:56:03.300,0,0,0,0,0,0,0,9999,9.771,
01/01/2000,00:01:30.02,-51.76,-26.86,-957.03,1.57,0.99,1.85,25.35,-31.05,24.45,22.76,03/01/2023,14:56:03.400,0,0,0,0,0,0,0,9999,9.771,
01/01/2000,00:01:30.12,-53.71,-19.53,-977.54,1.41,0.34,-0.02,27.15,-30.30,22.05,22.57,03/01/2023,14:56:03.500,0,0,0,0,0,0,0,9999,9.772,
01/01/2000,00:01:30.22,-59.57,-22.46,-973.63,-0.95,-0.46,1.75,25.95,-31.20,25.05,22.42,03/01/2023,14:56:03.600,0,0,0,0,0,0,0,9999,9.770,
01/01/2000,00:01:30.33,-57.13,-24.90,-963.38,2.96,-0.63,2.0,27.15,-29.85,22.80,22.42,03/01/2023,14:56:03.700,0,0,0,0,0,0,0,9999,9.772,
01/01/2000,00:01:30.42,-53.71,-34.67,-980.47,2.76,0.86,-0.01,25.95,-29.40,22.20,22.81,03/01/2023,14:56:03.800,0,0,0,0,0,0,0,9999,9.772,
01/01/2000,00:01:30.52,-53.71,-27.83,-981.93,3.59,0.05,1.85,23.10,-32.70,24.75,22.90,03/01/2023,14:56:03.900,0,0,0,0,0,0,0,9999,9.773,
01/01/2000,00:01:30.62,-52.73,-18.55,-966.31,-0.53,1.47,-1.31,24.60,-31.05,23.85,22.90,03/01/2023,14:56:04.000,0,0,0,0,0,0,0,9999,9.773,
01/01/2000,00:01:30.72,-65.43,-21.00,-973.63,2.85,0.50,-0.70,26.25,-30.90,22.65,22.81,03/01/2023,14:56:04.100,0,0,0,0,0,0,0,9999,9.773,
01/01/2000,00:01:30.82,-66.41,-19.04,-970.21,3.30,-0.06,-1.83,28.20,-31.35,22.05,22.76,03/01/2023,14:56:04.200,0,0,0,0,0,0,0,9999,9.773,
01/01/2000,00:01:30.92,-56.64,-11.72,-959.47,4.40,1.52,1.83,26.70,-30.15,23.25,22.57,03/01/2023,14:56:04.300,0,0,0,0,0,0,0,9999,9.774,
01/01/2000,00:01:31.02,-55.18,-23.44,-973.14,1.73,0.56,-0.60,25.35,-31.80,23.40,22.76,03/01/2023,14:56:04.400,0,0,0,0,0,0,0,9999,9.774,
01/01/2000,00:01:31.12,-61.04,-26.86,-965.82,-0.63,0.31,1.11,24.30,-32.10,25.20,22.61,03/01/2023,14:56:04.500,0,0,0,0,0,0,0,9999,9.772,
01/01/2000,00:01:31.23,-55.66,-5.86,-968.26,0.39,-1.78,-0.18,27.0,-31.20,23.70,22.81,03/01/2023,14:56:04.600,0,0,0,0,0,0,0,9999,9.774,
01/01/2000,00:01:31.33,-58.59,-13.18,-959.96,1.50,0.47,1.77,24.45,-32.70,24.0,22.81,03/01/2023,14:56:04.700,0,0,0,0,0,0,0,9999,9.775,
01/01/2000,00:01:31.43,-65.43,-10.25,-974.12,0.02,0.53,-1.62,26.70,-30.45,21.45,22.71,03/01/2023,14:56:04.800,0,0,0,0,0,0,0,9999,9.775,
01/01/2000,00:01:31.53,-58.11,-15.14,-966.31,1.38,0.04,-0.09,26.25,-31.65,20.85,22.76,03/01/2023,14:56:04.900,0,0,0,0,0,0,0,9999,9.775,
01/01/2000,00:01:31.63,-62.50,-31.74,-959.47,2.40,-0.46,-0.96,25.20,-31.65,23.70,22.81,03/01/2023,14:56:05.000,0,0,0,0,0,0,0,9999,9.775,
01/01/2000,00:01:31.73,-60.06,-14.16,-977.05,0.39,1.26,-0.31,25.50,-31.20,23.25,22.81,03/01/2023,14:56:05.100,0,0,0,0,0,0,0,9999,9.776,
01/01/2000,00:01:31.83,-51.76,-27.83,-965.33,3.08,-0.63,1.05,25.35,-31.35,22.05,22.90,03/01/2023,14:56:05.200,0,0,0,0,0,0,0,9999,9.776,
01/01/2000,00:01:31.92,-52.73,-16.11,-972.66,2.61,0.09,0.22,26.25,-31.20,21.45,22.71,03/01/2023,14:56:05.300,0,0,0,0,0,0,0,9999,9.776,
01/01/2000,00:01:32.02,-44.92,-22.95,-967.77,2.45,-1.78,1.77,26.25,-29.70,20.85,22.76,03/01/2023,14:56:05.400,0,0,0,0,0,0,0,9999,9.776,
01/01/2000,00:01:32.12,-51.76,-18.55,-968.75,-0.11,-1.11,-1.39,25.20,-32.40,23.70,22.81,03/01/2023,14:56:05.500,0,0,0,0,0,0,0,9999,9.777,
01/01/2000,00:01:32.22,-61.52,-14.16,-946.29,-0.36,-0.65,0.99,25.05,-31.80,23.40,22.57,03/01/2023,14:56:05.600,0,0,0,0,0,0,0,9999,9.777,
01/01/2000,00:01:32.32,-64.45,-24.41,-976.56,-0.24,1.69,0.85,25.50,-31.65,23.25,22.81,03/01/2023,14:56:05.700,0,0,0,0,0,0,0,9999,9.776,
01/01/2000,00:01:32.42,-54.69,-5.37,-966.80,4.72,-1.82,1.69,26.70,-30.45,21.90,22.76,03/01/2023,14:56:05.800,0,0,0,0,0,0,0,9999,9.777,
01/01/2000,00:01:32.52,-46.39,-19.53,-969.24,2.19,-1.47,0.70,25.80,-31.35,23.10,22.81,03/01/2023,14:56:05.900,0,0,0,0,0,0,0,9999,9.775,
01/01/2000,00:01:32.63,-56.64,-14.65,-966.80,4.59,-0.70,-2.27,26.85,-29.85,22.05,22.76,03/01/2023,14:56:06.000,0,0,0,0,0,0,0,9999,9.778,
01/01/2000,00:01:32.73,-46.88,-16.60,-955.57,4.32,-0.64,-2.05,26.70,-30.90,22.20,22.71,03/01/2023,14:56:06.100,0,0,0,0,0,0,0,9999,9.778,
01/01/2000,00:01:32.83,-56.64,-29.30,-972.17,3.13,0.36,-0.40,24.0,-32.85,25.65,22.90,03/01/2023,14:56:06.200,0,0,0,0,0,0,0,9999,9.778,
01/01/2000,00:01:32.92,-56.64,-24.41,-967.29,1.02,0.59,3.0,25.35,-33.30,25.20,22.81,03/01/2023,14:56:06.300,0,0,0,0,0,0,0,9999,9.779,
01/01/2000,00:01:33.02,-54.69,-17.09,-964.36,4.78,-2.86,-0.78,25.95,-31.65,21.90,22.81,03/01/2023,14:56:06.400,0,0,0,0,0,0,0,9999,9.779,
