rtcDate,rtcTime,aX,aY,aZ,gX,gY,gZ,mX,mY,mZ,imu_degC,gps_Date,gps_Time,gps_Lat,gps_Long,gps_Alt,gps_SIV,gps_FixType,gps_GroundSpeed,gps_Heading,gps_pDOP,output_Hz,
01/01/2000,00:00:03.10,-543.46,-67.38,-780.27,42.22,110.44,-70.38,31.05,-12.30,-42.30,18.16,03/22/2020,00:00:02.000,0,0,0,0,0,0,0,9999,10.0,
01/01/2000,00:00:03.22,-105.96,111.82,-810.06,-2.29,-250.14,-29.36,39.75,-17.10,-37.80,18.16,03/22/2020,00:00:02.100,0,0,0,0,0,0,0,9999,9.524,
01/01/2000,00:00:03.33,-244.63,-34.67,-743.16,4.66,7.76,-33.81,45.15,-12.30,-40.20,18.01,03/22/2020,00:00:02.200,0,0,0,0,0,0,0,9999,10.345,
01/01/2000,00:00:03.43,-285.64,80.08,-969.73,-9.33,-36.08,-22.38,41.70,-14.85,-38.25,18.21,03/22/2020,00:00:02.300,0,0,0,0,0,0,0,9999,10.256,
01/01/2000,00:00:03.53,-286.13,20.51,-988.77,-8.30,13.63,-1.18,45.90,-11.85,-40.50,18.30,03/22/2020,00:00:02.400,0,0,0,0,0,0,0,9999,10.204,
01/01/2000,00:00:03.63,-428.71,34.67,-952.15,37.15,58.77,-26.92,43.50,-15.15,-41.40,18.54,03/22/2020,00:00:02.500,0,0,0,0,0,0,0,9999,9.677,
01/01/2000,00:00:03.74,58.59,-238.77,-1121.58,70.18,86.67,-26.39,39.15,-19.20,-45.30,18.40,03/22/2020,00:00:02.600,0,0,0,0,0,0,0,9999,10.0,
01/01/2000,00:00:03.83,104.49,-196.78,-604.49,8.82,83.85,-94.57,40.05,-27.75,-44.70,18.06,03/22/2020,00:00:02.700,0,0,0,0,0,0,0,9999,10.0,
01/01/2000,00:00:03.93,268.07,-276.86,-899.41,1.56,-54.34,-19.62,36.0,-24.0,-46.50,18.40,03/22/2020,00:00:02.800,0,0,0,0,0,0,0,9999,10.0,
01/01/2000,00:00:04.03,0.0,-385.25,-1014.16,-58.50,25.73,-0.38,42.75,-25.05,-46.50,18.54,03/22/2020,00:00:02.900,0,0,0,0,0,0,0,9999,10.0,
01/01/2000,00:00:04.13,-375.98,-322.75,-814.94,5.19,108.02,24.47,40.05,-24.75,-44.40,18.35,03/22/2020,00:00:03.000,0,0,0,0,0,0,0,9999,10.0,
01/01/2000,00:00:04.23,175.78,-161.62,-1229.00,25.40,106.75,23.82,37.35,-23.40,-46.80,18.54,03/22/2020,00:00:03.100,0,0,0,0,0,0,0,9999,10.0,
01/01/2000,00:00:04.33,-322.27,-324.71,-675.78,69.47,-58.50,-25.53,33.0,-28.95,-47.25,18.54,03/22/2020,00:00:03.200,0,0,0,0,0,0,0,9999,10.0,
01/01/2000,00:00:04.43,-7.32,-324.22,-1096.68,-4.55,-87.98,-18.08,35.10,-30.30,-45.60,18.73,03/22/2020,00:00:03.300,0,0,0,0,0,0,0,9999,10.0,
01/01/2000,00:00:04.53,-125.0,-669.43,-704.10,52.01,-5.44,-26.89,37.95,-33.15,-47.70,18.35,03/22/2020,00:00:03.400,0,0,0,0,0,0,0,9999,10.0,
01/01/2000,00:00:04.63,59.08,-259.77,-669.43,46.35,-136.90,-71.33,45.60,-35.10,-46.50,18.68,03/22/2020,00:00:03.500,0,0,0,0,0,0,0,9999,10.0,
01/01/2000,00:00:04.73,-53.22,-175.29,-930.66,-250.14,-120.42,-239.68,54.0,-37.95,-43.05,18.68,03/22/2020,00:00:03.600,0,0,0,0,0,0,0,9999,10.059,
01/01/2000,00:00:04.83,-679.69,175.78,-516.11,-41.67,-80.66,-60.86,60.30,-34.20,-36.15,18.59,03/22/2020,00:00:03.700,0,0,0,0,0,0,0,9999,10.0,
01/01/2000,00:00:04.93,-152.34,-152.34,-857.91,178.11,76.91,-105.08,56.25,-41.40,-36.90,18.73,03/22/2020,00:00:03.800,0,0,0,0,0,0,0,9999,10.053,
01/01/2000,00:00:05.03,-416.99,-701.17,-1207.03,70.21,31.29,-185.02,50.25,-56.85,-37.20,18.88,03/22/2020,00:00:03.900,0,0,0,0,0,0,0,9999,10.050,
01/01/2000,00:00:05.13,248.05,-200.20,-673.34,33.87,-7.73,-77.47,45.15,-63.30,-38.25,18.83,03/22/2020,00:00:04.000,0,0,0,0,0,0,0,9999,9.906,
01/01/2000,00:00:05.23,193.85,-475.10,-930.18,-108.52,-32.76,-17.94,42.0,-68.55,-37.80,18.54,03/22/2020,00:00:04.100,0,0,0,0,0,0,0,9999,10.0,
01/01/2000,00:00:05.33,88.87,-629.39,-728.03,16.56,8.63,-27.47,44.55,-67.80,-36.30,19.07,03/22/2020,00:00:04.200,0,0,0,0,0,0,0,9999,10.0,
01/01/2000,00:00:05.43,123.54,-419.92,-870.61,-26.50,-43.40,-32.03,42.75,-68.55,-37.35,18.92,03/22/2020,00:00:04.300,0,0,0,0,0,0,0,9999,10.0,
01/01/2000,00:00:05.53,83.50,-661.62,-782.71,3.32,-61.52,4.43,42.45,-67.20,-35.40,18.83,03/22/2020,00:00:04.400,0,0,0,0,0,0,0,9999,10.0,
01/01/2000,00:00:05.63,113.77,-527.34,-597.17,16.35,64.23,-29.11,44.40,-67.20,-34.65,18.88,03/22/2020,00:00:04.500,0,0,0,0,0,0,0,9999,10.0,
01/01/2000,00:00:05.73,55.18,-604.49,-417.48,-7.63,-57.32,93.25,48.0,-66.45,-35.70,18.88,03/22/2020,00:00:04.600,0,0,0,0,0,0,0,9999,10.0,
01/01/2000,00:00:05.83,-58.59,-540.04,-937.01,-143.31,-63.83,42.0,52.20,-63.30,-34.35,19.12,03/22/2020,00:00:04.700,0,0,0,0,0,0,0,9999,10.036,
01/01/2000,00:00:05.93,164.06,338.87,-1395.02,-204.69,17.93,-4.44,51.45,-49.50,-39.0,19.02,03/22/2020,00:00:04.800,0,0,0,0,0,0,0,9999,10.035,
01/01/2000,00:00:06.03,190.92,438.96,-1191.41,38.85,22.24,37.09,51.15,-41.70,-43.65,19.07,03/22/2020,00:00:04.900,0,0,0,0,0,0,0,9999,10.033,
01/01/2000,00:00:06.13,-128.91,-386.23,-1120.12,-51.55,-11.63,102.66,49.35,-43.50,-40.65,19.07,03/22/2020,00:00:05.000,0,0,0,0,0,0,0,9999,9.936,
01/01/2000,00:00:06.23,-499.02,-256.35,-1079.59,-23.21,-155.93,-25.16,58.05,-34.20,-37.95,19.21,03/22/2020,00:00:05.100,0,0,0,0,0,0,0,9999,10.0,
01/01/2000,00:00:06.33,-345.70,-479.98,-761.72,104.58,118.70,28.10,58.95,-35.85,-34.50,19.02,03/22/2020,00:00:05.200,0,0,0,0,0,0,0,9999,10.0,
01/01/2000,00:00:06.43,-242.19,-118.65,-760.74,-37.12,-9.10,72.96,52.20,-38.70,-41.55,19.12,03/22/2020,00:00:05.300,0,0,0,0,0,0,0,9999,10.0,
01/01/2000,00:00:06.53,93.26,484.38,-516.11,-14.15,0.95,-0.85,52.50,-32.25,-42.30,19.26,03/22/2020,00:00:05.400,0,0,0,0,0,0,0,9999,10.0,
01/01/2000,00:00:06.63,485.84,305.18,-926.76,8.98,40.82,9.31,45.15,-31.80,-40.50,19.21,03/22/2020,00:00:05.500,0,0,0,0,0,0,0,9999,10.0,
01/01/2000,00:00:06.73,497.56,93.26,-871.09,-38.31,0.07,-26.60,44.40,-30.30,-40.95,19.21,03/22/2020,00:00:05.600,0,0,0,0,0,0,0,9999,10.0,
01/01/2000,00:00:06.83,350.59,272.46,-1323.24,22.41,-15.79,110.65,47.40,-28.35,-37.95,19.07,03/22/2020,00:00:05.700,0,0,0,0,0,0,0,9999,10.0,
01/01/2000,00:00:06.93,354.98,-49.32,-1308.11,-38.92,-98.04,55.93,42.45,-28.80,-41.55,19.40,03/22/2020,00:00:05.800,0,0,0,0,0,0,0,9999,10.0,
01/01/2000,00:00:07.03,262.70,-194.34,-1091.31,10.56,-106.86,4.44,46.80,-29.70,-38.55,19.36,03/22/2020,00:00:05.900,0,0,0,0,0,0,0,9999,10.025,
01/01/2000,00:00:07.13,115.72,-17.09,-953.61,11.67,-22.66,0.0,48.75,-28.35,-40.50,18.92,03/22/2020,00:00:06.000,0,0,0,0,0,0,0,9999,9.951,
01/01/2000,00:00:07.24,111.33,-14.65,-957.03,0.98,1.44,-1.36,49.50,-29.55,-42.30,19.64,03/22/2020,00:00:06.100,0,0,0,0,0,0,0,9999,10.0,
01/01/2000,00:00:07.34,71.29,-28.32,-979.49,1.85,1.41,0.52,47.70,-29.10,-38.70,19.26,03/22/2020,00:00:06.200,0,0,0,0,0,0,0,9999,10.0,
01/01/2000,00:00:07.44,76.17,-21.48,-954.10,1.24,-1.13,-0.27,48.0,-30.75,-39.0,19.36,03/22/2020,00:00:06.300,0,0,0,0,0,0,0,9999,10.0,
01/01/2000,00:00:07.53,71.29,-28.32,-985.35,3.32,1.52,-0.11,49.95,-28.05,-40.50,19.21,03/22/2020,00:00:06.400,0,0,0,0,0,0,0,9999,10.0,
01/01/2000,00:00:07.63,-32.71,193.85,-946.78,4.56,-7.50,26.40,49.35,-28.95,-40.65,19.40,03/22/2020,00:00:06.500,0,0,0,0,0,0,0,9999,10.0,
01/01/2000,00:00:07.73,-211.43,-76.66,-1096.68,-6.98,1.37,36.46,47.85,-29.40,-38.85,19.07,03/22/2020,00:00:06.600,0,0,0,0,0,0,0,9999,10.0,
01/01/2000,00:00:07.83,76.17,80.08,-992.68,-0.82,-2.84,15.98,46.95,-27.15,-37.65,19.55,03/22/2020,00:00:06.700,0,0,0,0,0,0,0,9999,10.0,
01/01/2000,00:00:07.93,268.55,111.82,-1018.07,0.98,-4.15,2.17,46.20,-27.60,-38.25,19.12,03/22/2020,00:00:06.800,0,0,0,0,0,0,0,9999,10.0,
01/01/2000,00:00:08.03,105.47,-23.93,-993.16,3.38,-7.50,1.42,47.70,-26.10,-41.25,19.36,03/22/2020,00:00:06.900,0,0,0,0,0,0,0,9999,10.0,
01/01/2000,00:00:08.13,101.07,-2.44,-940.92,2.27,-3.09,-2.47,46.95,-26.85,-38.70,19.55,03/22/2020,00:00:07.000,0,0,0,0,0,0,0,9999,10.0,
01/01/2000,00:00:08.23,83.50,-16.60,-966.80,1.01,-1.56,0.44,49.80,-27.0,-41.10,19.40,03/22/2020,00:00:07.100,0,0,0,0,0,0,0,9999,10.0,
01/01/2000,00:00:08.33,84.96,-19.04,-917.97,0.29,-0.53,1.35,47.40,-27.15,-40.50,19.60,03/22/2020,00:00:07.200,0,0,0,0,0,0,0,9999,10.0,
01/01/2000,00:00:08.43,76.66,-3.42,-990.72,3.11,-0.77,-1.72,46.20,-27.15,-39.45,19.55,03/22/2020,00:00:07.300,0,0,0,0,0,0,0,9999,10.0,
01/01/2000,00:00:08.53,67.38,-25.39,-973.14,0.24,-2.44,-0.18,46.95,-27.15,-38.70,19.55,03/22/2020,00:00:07.400,0,0,0,0,0,0,0,9999,10.018,
01/01/2000,00:00:08.63,59.08,-29.30,-955.08,1.25,-1.56,-1.47,47.10,-26.25,-40.65,19.74,03/22/2020,00:00:07.500,0,0,0,0,0,0,0,9999,10.018,
01/01/2000,00:00:08.73,60.06,-36.13,-991.21,0.89,-0.15,0.53,48.30,-27.75,-40.65,19.60,03/22/2020,00:00:07.600,0,0,0,0,0,0,0,9999,10.018,
01/01/2000,00:00:08.83,55.18,-28.81,-948.73,1.49,3.16,-3.84,48.0,-26.10,-40.95,19.60,03/22/2020,00:00:07.700,0,0,0,0,0,0,0,9999,10.017,
01/01/2000,00:00:08.93,77.15,-35.16,-977.05,2.69,2.0,-0.81,47.85,-27.45,-39.30,19.45,03/22/2020,00:00:07.800,0,0,0,0,0,0,0,9999,10.017,
01/01/2000,00:00:09.03,61.52,-32.23,-951.66,1.10,0.01,-0.16,47.55,-27.45,-38.10,19.74,03/22/2020,00:00:07.900,0,0,0,0,0,0,0,9999,9.967,
01/01/2000,00:00:09.13,58.59,-20.51,-967.29,0.90,1.35,-0.77,48.60,-25.80,-40.65,19.74,03/22/2020,00:00:08.000,0,0,0,0,0,0,0,9999,10.0,
01/01/2000,00:00:09.23,68.36,-21.97,-960.45,2.72,0.87,-1.34,45.15,-26.85,-38.70,19.88,03/22/2020,00:00:08.100,0,0,0,0,0,0,0,9999,10.0,
01/01/2000,00:00:09.33,68.85,-26.86,-982.42,-1.32,2.29,-1.22,49.20,-26.40,-40.95,19.64,03/22/2020,00:00:08.200,0,0,0,0,0,0,0,9999,10.0,
01/01/2000,00:00:09.43,67.87,-27.34,-954.10,3.21,2.31,0.85,48.30,-26.70,-40.65,19.64,03/22/2020,00:00:08.300,0,0,0,0,0,0,0,9999,10.0,
01/01/2000,00:00:09.53,1.46,-27.34,-1149.41,4.30,-4.52,-0.73,48.30,-25.80,-41.40,19.74,03/22/2020,00:00:08.400,0,0,0,0,0,0,0,9999,10.0,
01/01/2000,00:00:09.63,95.21,13.67,-1113.28,-8.41,80.94,20.55,43.20,-27.60,-37.95,19.79,03/22/2020,00:00:08.500,0,0,0,0,0,0,0,9999,10.0,
01/01/2000,00:00:09.73,117.68,6.35,-958.50,-36.99,18.76,-0.89,39.0,-25.05,-39.30,19.88,03/22/2020,00:00:08.600,0,0,0,0,0,0,0,9999,10.015,
01/01/2000,00:00:09.83,251.95,-494.14,-725.59,71.76,250.13,12.80,34.95,-23.25,-42.15,19.88,03/22/2020,00:00:08.700,0,0,0,0,0,0,0,9999,10.015,
01/01/2000,00:00:09.93,357.91,-308.59,-742.68,41.79,100.14,6.06,24.0,-29.55,-43.05,19.79,03/22/2020,00:00:08.800,0,0,0,0,0,0,0,9999,10.015,
01/01/2000,00:00:10.03,463.38,-200.20,-692.87,-6.40,52.75,-45.98,15.30,-27.45,-37.80,19.88,03/22/2020,00:00:08.900,0,0,0,0,0,0,0,9999,9.972,
01/01/2000,00:00:10.14,591.80,-30.76,-710.45,2.99,37.68,-12.57,14.85,-28.20,-38.55,20.07,03/22/2020,00:00:09.000,0,0,0,0,0,0,0,9999,10.0,
01/01/2000,00:00:10.24,829.10,-61.04,-786.62,4.17,53.82,4.61,12.90,-28.35,-34.65,19.98,03/22/2020,00:00:09.100,0,0,0,0,0,0,0,9999,10.0,
01/01/2000,00:00:10.34,738.28,-75.68,-626.95,56.31,-10.57,3.40,9.60,-29.85,-32.85,20.17,03/22/2020,00:00:09.200,0,0,0,0,0,0,0,9999,10.0,
01/01/2000,00:00:10.44,750.98,-156.25,-577.15,22.92,37.18,3.42,9.15,-28.05,-35.70,19.79,03/22/2020,00:00:09.300,0,0,0,0,0,0,0,9999,10.0,
01/01/2000,00:00:10.53,846.68,-185.06,-395.51,-46.87,10.14,8.81,5.85,-31.05,-32.85,19.74,03/22/2020,00:00:09.400,0,0,0,0,0,0,0,9999,10.0,
01/01/2000,00:00:10.63,829.59,-111.82,-537.11,-13.04,-28.37,-14.98,6.90,-29.10,-33.90,19.98,03/22/2020,00:00:09.500,0,0,0,0,0,0,0,9999,10.0,
01/01/2000,00:00:10.73,811.04,-149.90,-611.33,34.91,0.94,-1.09,5.85,-29.55,-31.35,19.64,03/22/2020,00:00:09.600,0,0,0,0,0,0,0,9999,10.0,
01/01/2000,00:00:10.83,808.59,-44.92,-370.12,-8.98,-6.41,-4.54,5.85,-29.10,-32.10,19.98,03/22/2020,00:00:09.700,0,0,0,0,0,0,0,9999,10.0,
01/01/2000,00:00:10.93,662.60,-123.05,-396.97,-31.27,-116.0,-23.24,9.60,-26.85,-35.40,19.98,03/22/2020,00:00:09.800,0,0,0,0,0,0,0,9999,10.0,
01/01/2000,00:00:11.03,656.25,-183.11,-835.94,-43.79,-95.87,13.23,19.50,-24.90,-39.0,20.07,03/22/2020,00:00:09.900,0,0,0,0,0,0,0,9999,10.0,
01/01/2000,00:00:11.13,373.54,93.26,-741.21,-54.01,-50.34,-16.26,25.65,-25.80,-40.35,19.98,03/22/2020,00:00:10.000,0,0,0,0,0,0,0,9999,10.0,
01/01/2000,00:00:11.23,180.66,-23.93,-1072.75,-4.88,35.09,17.47,32.40,-24.0,-42.90,20.12,03/22/2020,00:00:10.100,0,0,0,0,0,0,0,9999,10.0,
01/01/2000,00:00:11.33,271.00,-125.0,-582.52,46.29,-105.66,9.47,33.30,-23.70,-39.0,20.12,03/22/2020,00:00:10.200,0,0,0,0,0,0,0,9999,10.0,
01/01/2000,00:00:11.43,-105.96,-73.73,-1077.64,-0.63,-160.17,-5.67,43.50,-24.30,-38.85,20.12,03/22/2020,00:00:10.300,0,0,0,0,0,0,0,9999,10.0,
01/01/2000,00:00:11.53,118.65,-84.96,-822.75,-6.63,-8.11,-3.97,47.70,-23.40,-42.0,19.74,03/22/2020,00:00:10.400,0,0,0,0,0,0,0,9999,10.012,
01/01/2000,00:00:11.63,80.08,-68.85,-939.45,-2.26,6.96,-0.97,48.45,-23.70,-40.95,20.17,03/22/2020,00:00:10.500,0,0,0,0,0,0,0,9999,10.012,
01/01/2000,00:00:11.73,53.22,0.0,-930.66,1.31,-4.13,-0.41,48.30,-23.55,-42.15,20.07,03/22/2020,00:00:10.600,0,0,0,0,0,0,0,9999,10.012,
01/01/2000,00:00:11.83,30.27,-25.39,-972.66,3.92,6.23,-1.31,45.15,-25.35,-39.0,20.31,03/22/2020,00:00:10.700,0,0,0,0,0,0,0,9999,10.011,
01/01/2000,00:00:11.93,49.80,-13.18,-961.43,5.56,-0.56,-1.28,45.15,-26.10,-39.45,20.12,03/22/2020,00:00:10.800,0,0,0,0,0,0,0,9999,10.011,
01/01/2000,00:00:12.03,64.94,-3.91,-969.73,4.14,0.24,-2.74,45.15,-24.15,-38.70,20.41,03/22/2020,00:00:10.900,0,0,0,0,0,0,0,9999,9.978,
01/01/2000,00:00:12.13,65.92,-19.53,-955.08,4.18,0.42,-2.62,46.80,-24.75,-42.45,20.31,03/22/2020,00:00:11.000,0,0,0,0,0,0,0,9999,10.0,
01/01/2000,00:00:12.23,66.89,-25.39,-960.94,3.60,1.72,0.19,46.80,-25.50,-39.90,19.98,03/22/2020,00:00:11.100,0,0,0,0,0,0,0,9999,10.0,
01/01/2000,00:00:12.33,52.73,-29.79,-970.70,2.43,1.32,-2.43,47.40,-23.70,-40.95,20.17,03/22/2020,00:00:11.200,0,0,0,0,0,0,0,9999,10.0,
01/01/2000,00:00:12.43,44.43,-41.99,-944.82,2.72,3.35,-1.26,46.65,-24.15,-40.95,20.17,03/22/2020,00:00:11.300,0,0,0,0,0,0,0,9999,10.011,
01/01/2000,00:00:12.53,36.13,-56.15,-988.77,0.16,1.02,-2.56,45.45,-24.15,-39.75,20.17,03/22/2020,00:00:11.400,0,0,0,0,0,0,0,9999,10.011,
01/01/2000,00:00:12.63,44.43,-8.79,-1018.55,2.24,1.59,-0.25,48.60,-24.75,-40.35,20.12,03/22/2020,00:00:11.500,0,0,0,0,0,0,0,9999,10.010,
01/01/2000,00:00:12.73,59.08,-25.88,-931.64,0.08,-0.25,-2.17,46.95,-24.15,-41.25,19.98,03/22/2020,00:00:11.600,0,0,0,0,0,0,0,9999,10.010,
01/01/2000,00:00:12.83,62.50,-17.58,-1000.98,4.21,0.55,-2.69,46.80,-24.30,-42.15,20.31,03/22/2020,00:00:11.700,0,0,0,0,0,0,0,9999,9.980,
01/01/2000,00:00:12.93,59.08,-40.04,-988.28,2.29,-1.98,1.15,46.95,-24.15,-41.25,20.31,03/22/2020,00:00:11.900,0,0,0,0,0,0,0,9999,9.890,
01/01/2000,00:00:13.13,52.25,-25.88,-1000.0,4.09,2.05,0.31,48.45,-22.20,-40.95,20.27,03/22/2020,00:00:12.000,0,0,0,0,0,0,0,9999,9.901,
01/01/2000,00:00:13.23,60.55,-16.60,-964.36,4.09,0.63,-0.39,46.65,-26.10,-39.0,20.31,03/22/2020,00:00:12.100,0,0,0,0,0,0,0,9999,9.902,
01/01/2000,00:00:13.33,79.10,-16.11,-963.38,1.87,1.29,-2.96,46.20,-24.15,-41.25,20.17,03/22/2020,00:00:12.200,0,0,0,0,0,0,0,9999,9.903,
01/01/2000,00:00:13.43,59.57,-18.07,-1014.16,0.92,2.0,-1.56,46.35,-24.75,-38.10,20.07,03/22/2020,00:00:12.300,0,0,0,0,0,0,0,9999,9.904,
01/01/2000,00:00:13.53,63.96,-42.48,-942.87,2.68,-1.04,-0.21,47.85,-24.75,-39.60,20.31,03/22/2020,00:00:12.400,0,0,0,0,0,0,0,9999,9.914,
01/01/2000,00:00:13.63,60.55,-70.80,-925.29,2.07,2.14,-5.08,46.65,-25.65,-41.25,20.46,03/22/2020,00:00:12.500,0,0,0,0,0,0,0,9999,9.906,
01/01/2000,00:00:13.73,45.41,-41.50,-975.10,2.0,0.38,-0.51,45.30,-24.75,-38.55,20.46,03/22/2020,00:00:12.600,0,0,0,0,0,0,0,9999,9.916,
01/01/2000,00:00:13.83,44.43,-41.02,-917.48,1.78,-0.82,-0.88,46.05,-25.50,-39.30,20.51,03/22/2020,00:00:12.700,0,0,0,0,0,0,0,9999,9.917,
01/01/2000,00:00:13.93,60.06,-30.76,-993.16,2.78,0.76,-0.21,47.85,-24.0,-40.35,20.41,03/22/2020,00:00:12.800,0,0,0,0,0,0,0,9999,9.917,
01/01/2000,00:00:14.03,49.80,-19.53,-987.79,2.79,-0.10,0.98,48.30,-24.0,-41.85,20.51,03/22/2020,00:00:12.900,0,0,0,0,0,0,0,9999,9.891,
01/01/2000,00:00:14.13,53.22,-26.86,-963.38,1.04,-0.37,-0.87,48.30,-24.0,-41.10,20.46,03/22/2020,00:00:13.000,0,0,0,0,0,0,0,9999,9.910,
01/01/2000,00:00:14.23,61.52,-39.55,-974.61,1.87,1.33,-1.90,45.30,-25.05,-38.85,20.41,03/22/2020,00:00:13.100,0,0,0,0,0,0,0,9999,9.911,
01/01/2000,00:00:14.33,61.04,-17.58,-958.98,2.12,1.41,-2.29,45.60,-25.50,-40.65,20.46,03/22/2020,00:00:13.200,0,0,0,0,0,0,0,9999,9.912,
01/01/2000,00:00:14.43,62.99,-10.25,-958.98,0.40,3.61,-3.92,46.35,-24.30,-38.10,20.27,03/22/2020,00:00:13.300,0,0,0,0,0,0,0,9999,9.912,
01/01/2000,00:00:14.53,55.66,-22.46,-984.38,0.69,0.33,-0.95,45.30,-24.75,-38.55,20.41,03/22/2020,00:00:13.400,0,0,0,0,0,0,0,9999,9.922,
01/01/2000,00:00:14.63,55.18,-16.11,-948.24,-0.49,0.34,-1.27,47.55,-23.25,-40.65,20.17,03/22/2020,00:00:13.500,0,0,0,0,0,0,0,9999,9.922,
01/01/2000,00:00:14.73,50.29,-13.18,-970.70,1.02,0.08,-0.61,47.40,-22.95,-40.95,20.41,03/22/2020,00:00:13.600,0,0,0,0,0,0,0,9999,9.923,
01/01/2000,00:00:14.83,47.36,-24.41,-971.68,1.75,1.34,1.88,47.85,-24.0,-41.40,20.46,03/22/2020,00:00:13.700,0,0,0,0,0,0,0,9999,9.898,
01/01/2000,00:00:14.94,55.66,-11.23,-968.75,3.73,-2.70,0.08,44.40,-26.40,-36.90,20.46,03/22/2020,00:00:13.800,0,0,0,0,0,0,0,9999,9.908,
01/01/2000,00:00:15.04,67.87,-25.39,-967.29,3.50,1.38,-3.13,44.85,-25.50,-39.30,20.60,03/22/2020,00:00:13.900,0,0,0,0,0,0,0,9999,9.908,
01/01/2000,00:00:15.14,67.38,-25.88,-967.77,2.99,-1.89,-1.91,48.30,-24.75,-41.85,20.51,03/22/2020,00:00:14.000,0,0,0,0,0,0,0,9999,9.909,
01/01/2000,00:00:15.24,67.38,-26.37,-950.20,2.30,-0.59,-1.99,47.40,-23.70,-42.0,20.60,03/22/2020,00:00:14.100,0,0,0,0,0,0,0,9999,9.910,
01/01/2000,00:00:15.34,51.76,-35.64,-982.42,2.58,-0.55,-0.48,45.60,-25.80,-39.90,20.60,03/22/2020,00:00:14.200,0,0,0,0,0,0,0,9999,9.911,
01/01/2000,00:00:15.44,56.64,-22.46,-965.33,2.02,0.76,-1.23,47.55,-23.25,-40.35,20.51,03/22/2020,00:00:14.300,0,0,0,0,0,0,0,9999,9.911,
01/01/2000,00:00:15.54,66.41,-27.83,-993.65,-0.25,1.44,-0.54,47.85,-24.75,-40.65,20.65,03/22/2020,00:00:14.400,0,0,0,0,0,0,0,9999,9.912,
01/01/2000,00:00:15.64,64.45,-23.93,-949.22,0.82,-1.15,-0.98,45.45,-24.15,-39.45,20.94,03/22/2020,00:00:14.500,0,0,0,0,0,0,0,9999,9.913,
01/01/2000,00:00:15.74,48.34,-11.23,-975.59,1.58,-0.80,0.83,46.20,-25.65,-39.45,20.51,03/22/2020,00:00:14.600,0,0,0,0,0,0,0,9999,9.913,
01/01/2000,00:00:15.84,51.76,-26.86,-963.87,1.44,3.62,-1.31,47.55,-23.25,-39.90,20.60,03/22/2020,00:00:14.700,0,0,0,0,0,0,0,9999,9.914,
01/01/2000,00:00:15.94,51.76,-20.51,-964.84,1.37,1.15,0.92,47.10,-25.50,-42.15,20.99,03/22/2020,00:00:14.800,0,0,0,0,0,0,0,9999,9.922,
01/01/2000,00:00:16.04,61.52,-27.34,-948.24,2.49,-0.60,-1.05,45.90,-26.40,-38.70,20.70,03/22/2020,00:00:14.900,0,0,0,0,0,0,0,9999,9.923,
01/01/2000,00:00:16.14,69.34,-11.72,-974.61,1.79,-0.29,-1.46,46.20,-24.90,-39.45,20.70,03/22/2020,00:00:15.000,0,0,0,0,0,0,0,9999,9.924,
01/01/2000,00:00:16.24,57.13,-16.60,-957.52,2.48,2.73,-2.54,46.05,-23.55,-38.55,20.70,03/22/2020,00:00:15.100,0,0,0,0,0,0,0,9999,9.924,
01/01/2000,00:00:16.34,58.11,-9.28,-943.85,0.92,0.62,-2.16,46.35,-23.55,-41.10,20.65,03/22/2020,00:00:15.200,0,0,0,0,0,0,0,9999,9.925,
01/01/2000,00:00:16.43,68.85,-0.49,-966.80,2.31,0.41,-2.79,44.70,-24.15,-39.0,20.79,03/22/2020,00:00:15.300,0,0,0,0,0,0,0,9999,9.925,
01/01/2000,00:00:16.53,61.52,-30.27,-917.97,2.18,-1.47,-1.96,47.10,-24.0,-42.15,20.79,03/22/2020,00:00:15.400,0,0,0,0,0,0,0,9999,9.926,
01/01/2000,00:00:16.63,46.88,-25.88,-1004.39,2.91,-0.66,1.82,47.10,-25.50,-40.35,20.70,03/22/2020,00:00:15.500,0,0,0,0,0,0,0,9999,9.926,
01/01/2000,00:00:16.73,64.94,-22.46,-951.17,1.18,1.12,-0.11,46.20,-24.60,-39.75,20.70,03/22/2020,00:00:15.600,0,0,0,0,0,0,0,9999,9.927,
01/01/2000,00:00:16.83,58.59,-21.00,-964.36,2.68,-1.09,-2.08,43.80,-25.05,-39.60,20.70,03/22/2020,00:00:15.700,0,0,0,0,0,0,0,9999,9.928,
01/01/2000,00:00:16.93,62.01,-6.35,-943.36,1.27,-0.61,0.44,46.95,-25.65,-40.20,20.51,03/22/2020,00:00:15.800,0,0,0,0,0,0,0,9999,9.928,
01/01/2000,00:00:17.03,54.69,0.0,-938.48,3.66,0.38,0.66,46.95,-24.15,-40.50,20.79,03/22/2020,00:00:15.900,0,0,0,0,0,0,0,9999,9.929,
01/01/2000,00:00:17.13,62.99,-30.76,-955.57,-0.04,0.82,-2.56,46.05,-25.80,-39.90,20.41,03/22/2020,00:00:16.000,0,0,0,0,0,0,0,9999,9.929,
01/01/2000,00:00:17.23,50.78,-20.02,-972.66,1.34,3.18,0.35,47.10,-24.75,-41.10,20.70,03/22/2020,00:00:16.100,0,0,0,0,0,0,0,9999,9.930,
01/01/2000,00:00:17.33,61.04,-21.97,-981.45,-0.61,-0.43,0.08,44.55,-26.70,-37.35,20.70,03/22/2020,00:00:16.200,0,0,0,0,0,0,0,9999,9.930,
01/01/2000,00:00:17.43,62.99,-13.18,-946.29,2.68,1.76,-0.09,44.85,-26.25,-38.55,20.94,03/22/2020,00:00:16.300,0,0,0,0,0,0,0,9999,9.931,
01/01/2000,00:00:17.53,48.83,-21.97,-1003.42,0.94,0.13,-0.60,44.55,-26.70,-37.05,20.94,03/22/2020,00:00:16.400,0,0,0,0,0,0,0,9999,9.938,
01/01/2000,00:00:17.63,70.80,-29.79,-943.85,0.92,-0.85,-3.15,47.10,-24.75,-41.10,20.51,03/22/2020,00:00:16.500,0,0,0,0,0,0,0,9999,9.938,
01/01/2000,00:00:17.73,69.34,-15.63,-956.05,4.95,1.16,1.27,47.55,-24.75,-41.10,20.99,03/22/2020,00:00:16.600,0,0,0,0,0,0,0,9999,9.939,
01/01/2000,00:00:17.83,67.87,-11.23,-976.56,-0.02,1.24,-0.66,45.60,-24.75,-41.85,20.70,03/22/2020,00:00:16.700,0,0,0,0,0,0,0,9999,9.919,
01/01/2000,00:00:17.94,57.62,-11.72,-981.45,1.79,-1.01,0.88,45.90,-26.85,-37.65,20.79,03/22/2020,00:00:16.800,0,0,0,0,0,0,0,9999,9.926,
01/01/2000,00:00:18.04,53.71,-20.51,-942.87,1.65,-1.27,-1.26,45.60,-26.70,-39.30,20.84,03/22/2020,00:00:16.900,0,0,0,0,0,0,0,9999,9.927,
01/01/2000,00:00:18.14,51.27,-58.59,-989.75,2.59,-0.99,-0.34,46.65,-24.15,-42.0,20.94,03/22/2020,00:00:17.000,0,0,0,0,0,0,0,9999,9.927,
01/01/2000,00:00:18.24,49.80,-36.13,-963.38,4.09,-2.97,-0.64,47.40,-24.60,-41.55,21.03,03/22/2020,00:00:17.100,0,0,0,0,0,0,0,9999,9.928,
01/01/2000,00:00:18.34,57.62,-15.63,-988.28,-0.08,-0.92,-1.38,44.40,-25.65,-38.70,20.79,03/22/2020,00:00:17.200,0,0,0,0,0,0,0,9999,9.928,
01/01/2000,00:00:18.44,67.38,-2.93,-955.08,2.83,-1.52,-0.83,46.65,-24.15,-40.20,20.99,03/22/2020,00:00:17.300,0,0,0,0,0,0,0,9999,9.935,
01/01/2000,00:00:18.54,37.11,5.37,-958.50,2.42,-0.31,-3.56,42.75,-25.05,-37.80,20.70,03/22/2020,00:00:17.400,0,0,0,0,0,0,0,9999,9.935,
01/01/2000,00:00:18.64,51.27,-21.00,-963.87,1.69,-0.21,0.21,44.25,-25.80,-39.60,21.13,03/22/2020,00:00:17.500,0,0,0,0,0,0,0,9999,9.936,
01/01/2000,00:00:18.74,53.71,-17.09,-958.01,1.36,-4.0,-0.27,47.40,-25.65,-40.20,20.70,03/22/2020,00:00:17.600,0,0,0,0,0,0,0,9999,9.936,
01/01/2000,00:00:18.84,48.83,-12.70,-966.80,2.98,0.22,-4.56,48.45,-24.60,-41.25,20.70,03/22/2020,00:00:17.700,0,0,0,0,0,0,0,9999,9.937,
01/01/2000,00:00:18.94,32.23,-21.97,-964.84,1.69,0.77,-0.87,47.70,-23.70,-39.45,20.94,03/22/2020,00:00:17.800,0,0,0,0,0,0,0,9999,9.937,
01/01/2000,00:00:19.03,36.62,-27.83,-964.84,3.80,-2.73,-2.45,45.30,-24.75,-38.85,20.99,03/22/2020,00:00:17.900,0,0,0,0,0,0,0,9999,9.938,
01/01/2000,00:00:19.13,45.41,-30.27,-964.84,3.17,-4.02,0.12,46.05,-24.30,-40.35,20.70,03/22/2020,00:00:18.000,0,0,0,0,0,0,0,9999,9.932,
01/01/2000,00:00:19.23,33.20,-22.46,-967.77,1.99,-1.64,-1.19,46.95,-24.15,-40.50,20.70,03/22/2020,00:00:18.100,0,0,0,0,0,0,0,9999,9.938,
01/01/2000,00:00:19.33,47.85,-30.76,-950.20,4.18,-4.53,-0.37,48.75,-24.15,-40.50,21.03,03/22/2020,00:00:18.200,0,0,0,0,0,0,0,9999,9.939,
01/01/2000,00:00:19.43,30.76,-32.71,-951.17,1.30,-1.73,0.66,47.40,-25.65,-38.25,20.84,03/22/2020,00:00:18.300,0,0,0,0,0,0,0,9999,9.939,
01/01/2000,00:00:19.53,15.14,-24.90,-971.68,4.39,-2.32,2.16,47.85,-24.30,-39.90,21.03,03/22/2020,00:00:18.400,0,0,0,0,0,0,0,9999,9.939,
01/01/2000,00:00:19.63,18.55,-20.51,-967.29,2.21,-2.05,-1.48,48.0,-24.60,-40.50,21.18,03/22/2020,00:00:18.500,0,0,0,0,0,0,0,9999,9.940,
01/01/2000,00:00:19.73,17.09,-36.62,-964.84,3.96,-1.15,-2.47,47.55,-24.30,-37.80,21.03,03/22/2020,00:00:18.600,0,0,0,0,0,0,0,9999,9.940,
01/01/2000,00:00:19.83,35.64,-25.39,-966.80,1.91,-0.08,-1.34,47.70,-25.65,-38.70,21.03,03/22/2020,00:00:18.700,0,0,0,0,0,0,0,9999,9.940,
01/01/2000,00:00:19.93,1.46,-4.39,-944.34,4.98,-0.27,1.82,48.45,-24.60,-39.75,20.79,03/22/2020,00:00:18.800,0,0,0,0,0,0,0,9999,9.941,
01/01/2000,00:00:20.03,33.69,-22.95,-962.40,1.90,-2.15,1.20,48.60,-23.55,-40.35,21.18,03/22/2020,00:00:18.900,0,0,0,0,0,0,0,9999,9.941,
01/01/2000,00:00:20.13,-1.95,-21.00,-959.96,2.44,1.04,-3.85,47.70,-24.60,-38.25,21.18,03/22/2020,00:00:19.000,0,0,0,0,0,0,0,9999,9.930,
01/01/2000,00:00:20.24,10.25,-40.04,-993.16,1.23,2.56,-0.58,48.30,-23.55,-40.65,20.99,03/22/2020,00:00:19.100,0,0,0,0,0,0,0,9999,9.942,
01/01/2000,00:00:20.34,37.60,-22.95,-989.26,1.26,1.82,-1.09,46.35,-25.50,-38.10,20.84,03/22/2020,00:00:19.200,0,0,0,0,0,0,0,9999,9.942,
01/01/2000,00:00:20.44,11.72,-18.07,-958.50,0.68,4.77,-1.11,48.30,-23.55,-41.40,21.18,03/22/2020,00:00:19.300,0,0,0,0,0,0,0,9999,9.943,
01/01/2000,00:00:20.54,49.32,-26.86,-995.61,2.66,0.02,-2.02,46.20,-27.15,-37.95,20.94,03/22/2020,00:00:19.400,0,0,0,0,0,0,0,9999,9.943,
01/01/2000,00:00:20.64,40.04,-8.79,-948.24,2.19,-1.50,-3.69,47.55,-23.55,-41.10,21.03,03/22/2020,00:00:19.500,0,0,0,0,0,0,0,9999,9.943,
01/01/2000,00:00:20.74,59.08,-10.74,-980.47,3.15,-1.73,-0.40,48.0,-22.95,-40.50,21.18,03/22/2020,00:00:19.600,0,0,0,0,0,0,0,9999,9.944,
01/01/2000,00:00:20.84,28.32,-15.63,-976.07,3.82,0.45,0.98,46.05,-24.0,-38.55,21.32,03/22/2020,00:00:19.700,0,0,0,0,0,0,0,9999,9.944,
01/01/2000,00:00:20.93,19.53,-3.91,-979.49,2.0,-1.39,-1.60,49.20,-24.90,-39.75,21.03,03/22/2020,00:00:19.800,0,0,0,0,0,0,0,9999,9.944,
01/01/2000,00:00:21.03,49.80,-2.44,-977.05,1.01,1.11,-1.91,48.30,-24.0,-40.35,21.22,03/22/2020,00:00:19.900,0,0,0,0,0,0,0,9999,9.944,
01/01/2000,00:00:21.13,38.57,-13.67,-997.07,2.74,-1.56,-2.05,47.70,-23.70,-41.25,21.03,03/22/2020,00:00:20.000,0,0,0,0,0,0,0,9999,9.945,
01/01/2000,00:00:21.23,27.83,-17.58,-984.38,2.94,-0.07,-1.27,46.65,-24.60,-41.25,21.13,03/22/2020,00:00:20.100,0,0,0,0,0,0,0,9999,9.945,
01/01/2000,00:00:21.33,30.76,-21.48,-965.33,3.37,1.53,-1.68,46.95,-24.90,-37.65,21.03,03/22/2020,00:00:20.200,0,0,0,0,0,0,0,9999,9.945,
01/01/2000,00:00:21.43,38.09,-6.35,-955.08,3.77,-0.49,-1.10,45.30,-24.0,-37.80,21.32,03/22/2020,00:00:20.300,0,0,0,0,0,0,0,9999,9.946,
01/01/2000,00:00:21.53,34.18,-23.93,-948.24,1.28,-0.24,-0.17,45.90,-26.40,-38.25,21.22,03/22/2020,00:00:20.400,0,0,0,0,0,0,0,9999,9.946,
01/01/2000,00:00:21.63,29.30,-25.88,-944.34,0.58,1.90,-3.98,46.65,-24.60,-37.95,21.18,03/22/2020,00:00:20.500,0,0,0,0,0,0,0,9999,9.946,
01/01/2000,00:00:21.73,24.90,-15.14,-958.98,2.89,-3.02,-0.57,47.55,-23.25,-39.90,20.84,03/22/2020,00:00:20.600,0,0,0,0,0,0,0,9999,9.947,
01/01/2000,00:00:21.83,1.95,-19.53,-959.47,4.31,0.99,0.05,48.0,-23.70,-40.50,21.13,03/22/2020,00:00:20.700,0,0,0,0,0,0,0,9999,9.952,
01/01/2000,00:00:21.93,5.37,-8.30,-972.66,2.10,0.08,-1.90,46.65,-25.35,-41.25,20.79,03/22/2020,00:00:20.800,0,0,0,0,0,0,0,9999,9.947,
01/01/2000,00:00:22.03,22.46,-23.44,-967.29,2.76,1.42,-0.82,46.05,-25.80,-36.60,21.13,03/22/2020,00:00:20.900,0,0,0,0,0,0,0,9999,9.953,
01/01/2000,00:00:22.13,12.70,-14.16,-997.07,2.67,-3.26,-0.01,46.65,-26.10,-38.25,21.03,03/22/2020,00:00:21.000,0,0,0,0,0,0,0,9999,9.937,
01/01/2000,00:00:22.23,32.71,-58.11,-966.80,4.79,-3.89,-0.74,48.60,-23.25,-40.65,21.18,03/22/2020,00:00:21.100,0,0,0,0,0,0,0,9999,9.948,
01/01/2000,00:00:22.33,65.43,-33.20,-956.54,-3.70,1.80,-1.90,49.20,-24.90,-40.95,20.99,03/22/2020,00:00:21.200,0,0,0,0,0,0,0,9999,9.948,
01/01/2000,00:00:22.43,23.93,-41.99,-927.73,-3.28,2.91,-4.24,46.95,-23.70,-38.70,21.13,03/22/2020,00:00:21.300,0,0,0,0,0,0,0,9999,9.948,
01/01/2000,00:00:22.53,44.43,23.93,-1033.69,0.21,0.35,0.71,48.30,-23.55,-40.65,21.56,03/22/2020,00:00:21.400,0,0,0,0,0,0,0,9999,9.949,
01/01/2000,00:00:22.63,3.42,67.87,-956.54,2.47,-8.61,-2.24,44.55,-25.80,-37.05,20.94,03/22/2020,00:00:21.500,0,0,0,0,0,0,0,9999,9.949,
01/01/2000,00:00:22.73,-14.65,76.66,-888.18,1.43,-1.40,-1.17,47.40,-24.15,-38.25,20.99,03/22/2020,00:00:21.600,0,0,0,0,0,0,0,9999,9.949,
01/01/2000,00:00:22.83,-136.72,228.03,-797.85,6.28,-7.53,-21.56,47.55,-24.0,-37.80,21.51,03/22/2020,00:00:21.700,0,0,0,0,0,0,0,9999,9.955,
01/01/2000,00:00:22.93,37.60,5.86,-931.15,0.69,-4.04,-1.06,49.35,-24.30,-41.10,21.37,03/22/2020,00:00:21.800,0,0,0,0,0,0,0,9999,9.955,
01/01/2000,00:00:23.03,59.08,-57.13,-995.12,-0.30,-2.61,-2.08,48.0,-24.90,-39.75,21.32,03/22/2020,00:00:21.900,0,0,0,0,0,0,0,9999,9.955,
01/01/2000,00:00:23.13,2.44,-53.71,-979.00,-0.73,2.92,-1.41,47.10,-24.75,-38.10,21.32,03/22/2020,00:00:22.000,0,0,0,0,0,0,0,9999,9.940,
01/01/2000,00:00:23.24,66.89,-8.79,-943.36,2.51,-0.21,-0.30,49.20,-22.95,-39.75,21.13,03/22/2020,00:00:22.100,0,0,0,0,0,0,0,9999,9.950,
01/01/2000,00:00:23.34,4.39,7.32,-971.19,1.56,-3.78,0.16,47.10,-24.0,-38.85,21.51,03/22/2020,00:00:22.200,0,0,0,0,0,0,0,9999,9.951,
01/01/2000,00:00:23.43,8.79,23.93,-977.54,4.85,0.29,1.67,49.20,-23.40,-40.20,21.37,03/22/2020,00:00:22.300,0,0,0,0,0,0,0,9999,9.951,
01/01/2000,00:00:23.53,38.57,27.34,-950.20,4.34,-2.70,0.48,48.0,-24.90,-38.25,21.32,03/22/2020,00:00:22.400,0,0,0,0,0,0,0,9999,9.951,
01/01/2000,00:00:23.63,24.41,15.14,-985.84,2.98,2.32,2.03,49.80,-23.55,-40.65,21.22,03/22/2020,00:00:22.500,0,0,0,0,0,0,0,9999,9.951,
01/01/2000,00:00:23.73,-20.51,-9.77,-991.21,2.13,-2.82,-0.59,49.35,-22.80,-41.10,21.37,03/22/2020,00:00:22.600,0,0,0,0,0,0,0,9999,9.952,
01/01/2000,00:00:23.83,24.90,-13.18,-996.09,0.78,0.89,-0.55,47.70,-24.60,-39.45,21.51,03/22/2020,00:00:22.700,0,0,0,0,0,0,0,9999,9.952,
01/01/2000,00:00:23.93,-6.84,-31.74,-972.17,0.69,1.38,-1.93,47.70,-24.60,-39.0,21.32,03/22/2020,00:00:22.800,0,0,0,0,0,0,0,9999,9.952,
01/01/2000,00:00:24.03,-12.70,-0.49,-970.21,1.76,0.53,-2.34,49.80,-24.75,-41.40,21.22,03/22/2020,00:00:22.900,0,0,0,0,0,0,0,9999,9.952,
01/01/2000,00:00:24.13,37.11,32.71,-955.57,2.34,0.74,-2.05,49.20,-23.70,-41.25,21.46,03/22/2020,00:00:23.000,0,0,0,0,0,0,0,9999,9.953,
01/01/2000,00:00:24.23,-14.65,-62.01,-978.03,-3.70,0.52,-2.59,49.50,-23.70,-39.75,21.32,03/22/2020,00:00:23.100,0,0,0,0,0,0,0,9999,9.953,
01/01/2000,00:00:24.33,-82.03,5.37,-803.22,4.79,0.40,-0.03,48.0,-24.90,-39.45,21.37,03/22/2020,00:00:23.200,0,0,0,0,0,0,0,9999,9.953,
01/01/2000,00:00:24.43,-2.93,-19.53,-944.82,2.87,0.79,-1.09,47.55,-26.25,-36.60,21.66,03/22/2020,00:00:23.300,0,0,0,0,0,0,0,9999,9.958,
01/01/2000,00:00:24.53,-4.88,-15.63,-1009.28,-1.86,-1.21,-2.85,49.35,-26.25,-36.60,21.46,03/22/2020,00:00:23.400,0,0,0,0,0,0,0,9999,9.958,
01/01/2000,00:00:24.63,2.93,12.70,-1007.81,0.88,2.14,2.45,46.95,-25.35,-38.70,21.46,03/22/2020,00:00:23.500,0,0,0,0,0,0,0,9999,9.958,
01/01/2000,00:00:24.73,30.76,7.81,-968.26,-0.15,0.58,-0.08,48.75,-24.60,-39.0,21.56,03/22/2020,00:00:23.600,0,0,0,0,0,0,0,9999,9.959,
01/01/2000,00:00:24.83,-3.42,-15.63,-983.89,1.48,2.49,-1.96,50.70,-24.60,-39.75,21.56,03/22/2020,00:00:23.700,0,0,0,0,0,0,0,9999,9.945,
01/01/2000,00:00:24.94,5.86,-22.95,-947.75,-0.75,1.27,-0.11,50.40,-23.55,-39.90,21.51,03/22/2020,00:00:23.800,0,0,0,0,0,0,0,9999,9.954,
01/01/2000,00:00:25.04,12.21,24.41,-977.05,2.46,-0.29,-0.98,50.10,-25.80,-38.85,21.18,03/22/2020,00:00:23.900,0,0,0,0,0,0,0,9999,9.955,
01/01/2000,00:00:25.14,-6.84,-22.95,-929.20,0.0,-0.57,-1.85,50.70,-22.65,-39.75,21.46,03/22/2020,00:00:24.000,0,0,0,0,0,0,0,9999,9.955,
01/01/2000,00:00:25.24,30.76,69.34,-961.91,-2.39,1.0,-4.79,49.35,-25.05,-40.65,21.66,03/22/2020,00:00:24.100,0,0,0,0,0,0,0,9999,9.955,
01/01/2000,00:00:25.33,-23.93,-2.44,-984.86,0.0,1.20,-2.31,50.10,-24.0,-40.35,21.46,03/22/2020,00:00:24.200,0,0,0,0,0,0,0,9999,9.955,
01/01/2000,00:00:25.43,-17.09,22.95,-988.28,3.44,-1.02,-1.53,51.60,-25.50,-39.30,21.66,03/22/2020,00:00:24.300,0,0,0,0,0,0,0,9999,9.955,
01/01/2000,00:00:25.53,-9.28,11.23,-951.66,-3.55,-1.79,-2.85,49.05,-24.30,-37.05,21.51,03/22/2020,00:00:24.400,0,0,0,0,0,0,0,9999,9.956,
01/01/2000,00:00:25.63,-10.74,10.25,-990.23,0.79,7.56,-2.77,48.0,-23.70,-37.95,21.46,03/22/2020,00:00:24.500,0,0,0,0,0,0,0,9999,9.956,
01/01/2000,00:00:25.73,-5.37,-19.53,-994.14,5.95,6.66,5.91,47.10,-26.25,-37.35,21.66,03/22/2020,00:00:24.600,0,0,0,0,0,0,0,9999,9.956,
01/01/2000,00:00:25.83,41.99,58.59,-988.77,2.15,0.95,-1.87,48.30,-23.55,-40.65,21.37,03/22/2020,00:00:24.700,0,0,0,0,0,0,0,9999,9.956,
01/01/2000,00:00:25.93,7.32,65.43,-938.96,6.31,-2.53,-0.23,49.35,-22.80,-41.10,21.56,03/22/2020,00:00:24.800,0,0,0,0,0,0,0,9999,9.956,
01/01/2000,00:00:26.03,17.09,-46.88,-1011.23,0.50,1.92,-2.60,49.20,-24.60,-40.50,21.46,03/22/2020,00:00:24.900,0,0,0,0,0,0,0,9999,9.957,
01/01/2000,00:00:26.13,3.91,-40.04,-975.10,5.40,-1.18,-0.02,45.30,-25.80,-36.60,21.46,03/22/2020,00:00:25.000,0,0,0,0,0,0,0,9999,9.957,
01/01/2000,00:00:26.23,15.63,9.28,-1017.58,3.17,7.93,-3.11,48.45,-26.10,-38.70,21.66,03/22/2020,00:00:25.100,0,0,0,0,0,0,0,9999,9.957,
01/01/2000,00:00:26.33,86.43,60.06,-988.77,-3.74,20.64,-4.27,48.75,-24.60,-40.20,21.56,03/22/2020,00:00:25.200,0,0,0,0,0,0,0,9999,9.961,
01/01/2000,00:00:26.43,1.46,13.18,-986.82,1.11,1.22,-1.55,48.0,-24.60,-40.50,21.70,03/22/2020,00:00:25.300,0,0,0,0,0,0,0,9999,9.962,
01/01/2000,00:00:26.53,21.97,-6.35,-992.19,1.74,1.65,-2.06,46.65,-25.35,-39.45,21.70,03/22/2020,00:00:25.400,0,0,0,0,0,0,0,9999,9.962,
01/01/2000,00:00:26.63,41.02,-41.50,-948.73,3.20,-1.79,-1.44,48.30,-24.30,-40.35,21.56,03/22/2020,00:00:25.500,0,0,0,0,0,0,0,9999,9.962,
01/01/2000,00:00:26.73,59.57,-23.44,-980.96,2.42,-0.12,-3.16,46.80,-25.50,-38.85,21.56,03/22/2020,00:00:25.600,0,0,0,0,0,0,0,9999,9.949,
01/01/2000,00:00:26.83,49.80,-41.50,-1003.42,2.27,-1.93,-0.12,47.70,-23.70,-40.20,21.37,03/22/2020,00:00:25.700,0,0,0,0,0,0,0,9999,9.958,
01/01/2000,00:00:26.93,54.69,-17.58,-939.45,0.38,8.69,-0.66,46.65,-25.35,-38.70,21.46,03/22/2020,00:00:25.800,0,0,0,0,0,0,0,9999,9.958,
01/01/2000,00:00:27.03,24.41,-23.93,-1047.85,-0.82,1.07,-7.64,47.85,-24.75,-41.10,21.56,03/22/2020,00:00:25.900,0,0,0,0,0,0,0,9999,9.958,
01/01/2000,00:00:27.13,249.02,55.18,-993.16,-1.21,6.07,-77.71,47.70,-24.15,-41.55,21.85,03/22/2020,00:00:26.000,0,0,0,0,0,0,0,9999,9.959,
01/01/2000,00:00:27.23,196.29,-156.25,-856.45,-9.56,8.96,-123.32,42.75,-27.75,-41.10,21.37,03/22/2020,00:00:26.100,0,0,0,0,0,0,0,9999,9.959,
01/01/2000,00:00:27.33,-32.71,-80.57,-876.95,-6.50,19.13,-131.05,47.40,-29.55,-40.95,21.46,03/22/2020,00:00:26.200,0,0,0,0,0,0,0,9999,9.959,
01/01/2000,00:00:27.43,-14.16,-25.88,-926.76,15.85,17.95,-117.45,47.10,-32.40,-41.85,21.66,03/22/2020,00:00:26.300,0,0,0,0,0,0,0,9999,9.959,
01/01/2000,00:00:27.53,-57.62,-36.62,-967.29,28.46,15.37,-112.96,46.65,-37.95,-44.85,21.70,03/22/2020,00:00:26.400,0,0,0,0,0,0,0,9999,9.959,
01/01/2000,00:00:27.63,11.72,-53.71,-942.87,23.69,8.89,-105.68,44.85,-43.50,-43.65,21.46,03/22/2020,00:00:26.500,0,0,0,0,0,0,0,9999,9.963,
01/01/2000,00:00:27.73,-23.44,-47.36,-915.04,11.52,7.34,-121.44,44.70,-48.0,-44.10,21.70,03/22/2020,00:00:26.600,0,0,0,0,0,0,0,9999,9.964,
01/01/2000,00:00:27.83,9.28,-74.71,-906.25,14.15,3.93,-129.55,41.55,-51.30,-46.50,21.70,03/22/2020,00:00:26.700,0,0,0,0,0,0,0,9999,9.964,
01/01/2000,00:00:27.93,115.72,-31.74,-924.32,16.10,-2.67,-111.38,37.20,-57.45,-42.45,21.70,03/22/2020,00:00:26.800,0,0,0,0,0,0,0,9999,9.952,
01/01/2000,00:00:28.03,98.14,20.02,-979.49,10.65,-2.66,-44.18,36.0,-58.95,-44.70,21.66,03/22/2020,00:00:26.900,0,0,0,0,0,0,0,9999,9.960,
01/01/2000,00:00:28.13,-88.87,158.20,-909.18,7.15,2.45,-11.45,35.70,-60.90,-42.90,21.66,03/22/2020,00:00:27.000,0,0,0,0,0,0,0,9999,9.960,
01/01/2000,00:00:28.23,3.91,183.11,-1020.51,3.66,-4.05,-9.66,35.25,-60.45,-42.45,21.66,03/22/2020,00:00:27.100,0,0,0,0,0,0,0,9999,9.960,
01/01/2000,00:00:28.33,86.43,-43.95,-854.00,-0.50,4.37,-0.79,34.80,-61.50,-40.95,21.85,03/22/2020,00:00:27.200,0,0,0,0,0,0,0,9999,9.960,
01/01/2000,00:00:28.43,78.61,-64.45,-962.89,-0.73,0.35,1.79,34.80,-61.05,-42.0,21.70,03/22/2020,00:00:27.300,0,0,0,0,0,0,0,9999,9.961,
01/01/2000,00:00:28.53,75.20,-37.11,-958.01,-0.56,2.78,-0.41,36.45,-61.95,-42.15,21.56,03/22/2020,00:00:27.400,0,0,0,0,0,0,0,9999,9.961,
01/01/2000,00:00:28.63,78.61,-35.64,-977.05,1.02,1.14,-3.89,33.45,-62.40,-41.40,21.75,03/22/2020,00:00:27.500,0,0,0,0,0,0,0,9999,9.961,
01/01/2000,00:00:28.73,90.33,-31.25,-959.96,1.31,1.37,-1.15,33.45,-61.65,-39.60,21.85,03/22/2020,00:00:27.600,0,0,0,0,0,0,0,9999,9.961,
01/01/2000,00:00:28.83,85.94,-29.30,-959.96,4.01,0.27,-1.44,36.15,-59.85,-42.75,21.46,03/22/2020,00:00:27.700,0,0,0,0,0,0,0,9999,9.961,
01/01/2000,00:00:28.93,74.22,-21.97,-967.29,1.82,-0.19,0.08,35.10,-61.50,-42.30,21.56,03/22/2020,00:00:27.800,0,0,0,0,0,0,0,9999,9.965,
01/01/2000,00:00:29.03,70.31,-25.88,-969.73,1.40,1.51,0.69,36.15,-61.05,-41.25,21.56,03/22/2020,00:00:27.900,0,0,0,0,0,0,0,9999,9.965,
01/01/2000,00:00:29.13,65.43,-21.97,-982.91,2.66,-1.11,1.50,32.70,-62.70,-39.60,21.56,03/22/2020,00:00:28.000,0,0,0,0,0,0,0,9999,9.954,
01/01/2000,00:00:29.23,70.80,-15.63,-972.66,3.15,-1.76,-2.30,36.45,-60.90,-42.45,21.66,03/22/2020,00:00:28.100,0,0,0,0,0,0,0,9999,9.962,
01/01/2000,00:00:29.33,74.22,-12.21,-965.33,2.24,-0.40,-0.23,35.10,-61.05,-42.75,21.75,03/22/2020,00:00:28.200,0,0,0,0,0,0,0,9999,9.962,
01/01/2000,00:00:29.43,70.80,-25.39,-966.31,2.37,0.75,3.21,35.25,-60.90,-42.15,21.85,03/22/2020,00:00:28.300,0,0,0,0,0,0,0,9999,9.962,
01/01/2000,00:00:29.53,76.17,-19.04,-958.50,2.47,0.98,0.95,33.75,-61.65,-41.40,21.90,03/22/2020,00:00:28.400,0,0,0,0,0,0,0,9999,9.962,
01/01/2000,00:00:29.63,95.21,-17.09,-959.96,1.44,0.76,-1.50,35.55,-61.50,-42.75,21.75,03/22/2020,00:00:28.500,0,0,0,0,0,0,0,9999,9.962,
01/01/2000,00:00:29.73,79.10,-30.27,-1011.72,1.69,0.53,-1.17,35.25,-63.60,-42.15,21.90,03/22/2020,00:00:28.600,0,0,0,0,0,0,0,9999,9.963,
01/01/2000,00:00:29.83,67.38,-12.21,-961.91,1.63,-1.09,1.62,34.35,-61.80,-40.20,21.75,03/22/2020,00:00:28.700,0,0,0,0,0,0,0,9999,9.963,
01/01/2000,00:00:29.93,91.31,-21.97,-964.84,1.74,0.41,-2.32,35.85,-60.60,-42.75,21.56,03/22/2020,00:00:28.800,0,0,0,0,0,0,0,9999,9.963,
01/01/2000,00:00:30.03,83.50,-25.88,-950.68,2.44,0.73,-1.08,36.45,-60.90,-41.40,21.66,03/22/2020,00:00:28.900,0,0,0,0,0,0,0,9999,9.963,
01/01/2000,00:00:30.13,84.96,-24.90,-974.61,2.06,1.11,-1.94,36.60,-60.60,-43.05,21.51,03/22/2020,00:00:29.000,0,0,0,0,0,0,0,9999,9.956,
01/01/2000,00:00:30.24,72.27,-23.44,-963.87,2.14,-0.47,2.15,33.30,-63.0,-38.25,21.70,03/22/2020,00:00:29.100,0,0,0,0,0,0,0,9999,9.960,
01/01/2000,00:00:30.34,80.08,-17.09,-972.17,4.21,-2.88,-2.30,33.0,-61.20,-39.90,22.04,03/22/2020,00:00:29.200,0,0,0,0,0,0,0,9999,9.960,
01/01/2000,00:00:30.44,102.05,-0.49,-962.89,3.08,-1.94,-0.09,35.55,-61.05,-41.55,21.70,03/22/2020,00:00:29.300,0,0,0,0,0,0,0,9999,9.960,
01/01/2000,00:00:30.54,68.36,-34.18,-940.43,3.29,2.02,1.05,36.15,-61.05,-43.05,21.85,03/22/2020,00:00:29.400,0,0,0,0,0,0,0,9999,9.960,
01/01/2000,00:00:30.64,77.64,-4.88,-979.98,-1.29,1.89,-1.95,33.45,-63.15,-41.10,21.70,03/22/2020,00:00:29.500,0,0,0,0,0,0,0,9999,9.960,
01/01/2000,00:00:30.74,100.59,-19.04,-940.43,3.66,-0.13,0.24,34.05,-61.05,-43.50,21.90,03/22/2020,00:00:29.600,0,0,0,0,0,0,0,9999,9.960,
01/01/2000,00:00:30.84,90.33,-24.90,-974.12,1.12,1.51,-2.48,34.35,-63.0,-41.25,21.99,03/22/2020,00:00:29.700,0,0,0,0,0,0,0,9999,9.960,
01/01/2000,00:00:30.94,80.08,-33.69,-945.80,0.59,3.18,-2.66,33.0,-61.95,-40.65,21.85,03/22/2020,00:00:29.800,0,0,0,0,0,0,0,9999,9.961,
01/01/2000,00:00:31.04,97.66,-24.41,-983.89,-1.55,-0.45,-2.31,34.20,-61.95,-39.90,21.66,03/22/2020,00:00:29.900,0,0,0,0,0,0,0,9999,9.961,
01/01/2000,00:00:31.14,96.68,-42.48,-964.84,5.0,2.47,-0.60,35.70,-61.95,-43.20,21.90,03/22/2020,00:00:30.000,0,0,0,0,0,0,0,9999,9.964,
01/01/2000,00:00:31.24,75.68,-20.51,-927.73,-0.50,0.58,-2.45,34.95,-60.45,-43.20,21.99,03/22/2020,00:00:30.100,0,0,0,0,0,0,0,9999,9.965,
01/01/2000,00:00:31.34,73.24,-26.86,-1015.63,1.95,0.36,-1.34,34.20,-62.40,-40.65,21.75,03/22/2020,00:00:30.200,0,0,0,0,0,0,0,9999,9.965,
01/01/2000,00:00:31.44,119.63,-8.30,-897.95,2.30,1.65,-0.51,33.30,-61.80,-40.50,21.90,03/22/2020,00:00:30.300,0,0,0,0,0,0,0,9999,9.965,
01/01/2000,00:00:31.54,62.01,-24.41,-972.17,2.71,-1.63,-1.51,33.60,-61.80,-41.25,21.85,03/22/2020,00:00:30.400,0,0,0,0,0,0,0,9999,9.965,
01/01/2000,00:00:31.64,86.91,-12.21,-906.25,1.12,5.93,-2.0,35.10,-60.60,-43.05,21.66,03/22/2020,00:00:30.500,0,0,0,0,0,0,0,9999,9.965,
01/01/2000,00:00:31.74,91.31,-20.51,-1000.98,4.76,0.71,1.12,35.10,-60.60,-41.25,21.70,03/22/2020,00:00:30.600,0,0,0,0,0,0,0,9999,9.965,
01/01/2000,00:00:31.83,85.94,-30.27,-998.05,1.0,2.04,-0.29,34.50,-60.15,-43.20,21.90,03/22/2020,00:00:30.700,0,0,0,0,0,0,0,9999,9.965,
01/01/2000,00:00:31.93,117.19,-17.58,-966.80,3.86,-0.81,-2.29,35.10,-60.60,-41.55,21.90,03/22/2020,00:00:30.800,0,0,0,0,0,0,0,9999,9.965,
01/01/2000,00:00:32.03,67.38,-11.72,-983.40,0.39,-0.84,1.38,31.95,-64.35,-39.90,21.85,03/22/2020,00:00:30.900,0,0,0,0,0,0,0,9999,9.966,
01/01/2000,00:00:32.13,83.50,-17.09,-966.31,1.98,-2.86,-1.08,32.85,-60.60,-40.20,21.90,03/22/2020,00:00:31.000,0,0,0,0,0,0,0,9999,9.966,
01/01/2000,00:00:32.23,78.13,-28.32,-924.32,0.10,1.42,-3.81,34.35,-59.10,-43.80,22.09,03/22/2020,00:00:31.100,0,0,0,0,0,0,0,9999,9.966,
01/01/2000,00:00:32.33,98.63,-35.16,-974.12,5.11,-3.65,1.50,33.60,-61.50,-41.55,22.09,03/22/2020,00:00:31.200,0,0,0,0,0,0,0,9999,9.966,
01/01/2000,00:00:32.43,95.70,-19.04,-970.21,2.55,1.69,-0.88,34.50,-63.60,-39.90,22.04,03/22/2020,00:00:31.300,0,0,0,0,0,0,0,9999,9.966,
01/01/2000,00:00:32.53,93.26,-19.04,-958.98,2.19,-1.95,-1.20,34.50,-61.65,-43.65,21.66,03/22/2020,00:00:31.400,0,0,0,0,0,0,0,9999,9.966,
01/01/2000,00:00:32.63,107.42,1.95,-970.21,5.04,-2.27,1.11,33.75,-61.20,-41.40,21.99,03/22/2020,00:00:31.500,0,0,0,0,0,0,0,9999,9.966,
01/01/2000,00:00:32.73,82.03,-28.81,-932.13,2.99,0.44,-0.56,33.60,-61.50,-41.25,21.85,03/22/2020,00:00:31.600,0,0,0,0,0,0,0,9999,9.966,
01/01/2000,00:00:32.83,111.33,-7.81,-974.61,0.49,0.63,-2.73,33.75,-62.40,-41.10,21.90,03/22/2020,00:00:31.700,0,0,0,0,0,0,0,9999,9.966,
01/01/2000,00:00:32.93,59.57,-12.21,-932.13,4.06,-2.43,-1.30,34.95,-60.15,-42.90,21.85,03/22/2020,00:00:31.800,0,0,0,0,0,0,0,9999,9.967,
01/01/2000,00:00:33.03,80.57,7.32,-1005.86,4.59,0.41,-1.34,34.50,-60.90,-41.85,21.66,03/22/2020,00:00:31.900,0,0,0,0,0,0,0,9999,9.970,
01/01/2000,00:00:33.13,69.82,-30.76,-982.42,2.98,-4.02,0.27,36.15,-62.25,-42.30,22.04,03/22/2020,00:00:32.000,0,0,0,0,0,0,0,9999,9.960,
01/01/2000,00:00:33.24,93.26,-10.74,-942.38,0.69,0.28,-0.31,35.25,-63.15,-40.35,21.99,03/22/2020,00:00:32.100,0,0,0,0,0,0,0,9999,9.964,
01/01/2000,00:00:33.34,79.10,-26.37,-962.89,0.48,-1.04,0.02,33.0,-62.70,-41.10,22.04,03/22/2020,00:00:32.200,0,0,0,0,0,0,0,9999,9.964,
01/01/2000,00:00:33.44,76.17,-17.58,-982.91,1.55,0.29,-0.32,36.45,-61.20,-43.95,21.90,03/22/2020,00:00:32.300,0,0,0,0,0,0,0,9999,9.964,
01/01/2000,00:00:33.54,81.05,-18.07,-967.29,1.89,2.11,-0.66,35.25,-61.20,-43.20,21.70,03/22/2020,00:00:32.400,0,0,0,0,0,0,0,9999,9.964,
01/01/2000,00:00:33.64,123.54,-89.36,-868.16,-6.48,-1.72,-2.02,35.55,-63.30,-40.50,22.09,03/22/2020,00:00:32.500,0,0,0,0,0,0,0,9999,9.964,
01/01/2000,00:00:33.74,69.82,-73.24,-958.01,-3.95,12.19,-3.17,36.15,-61.80,-41.55,21.70,03/22/2020,00:00:32.600,0,0,0,0,0,0,0,9999,9.964,
01/01/2000,00:00:33.84,92.77,10.74,-971.68,1.08,2.76,-1.48,33.60,-61.50,-40.50,21.90,03/22/2020,00:00:32.700,0,0,0,0,0,0,0,9999,9.968,
01/01/2000,00:00:33.94,90.82,-18.55,-955.08,-0.02,0.99,-1.36,34.50,-60.45,-40.65,22.04,03/22/2020,00:00:32.800,0,0,0,0,0,0,0,9999,9.968,
01/01/2000,00:00:34.04,84.96,-11.23,-966.31,-1.61,1.18,-1.85,34.95,-61.20,-43.65,21.75,03/22/2020,00:00:32.900,0,0,0,0,0,0,0,9999,9.968,
01/01/2000,00:00:34.14,88.38,-2.44,-990.23,2.24,-1.48,0.05,34.95,-59.70,-43.20,21.90,03/22/2020,00:00:33.000,0,0,0,0,0,0,0,9999,9.968,
01/01/2000,00:00:34.24,94.73,-1.46,-981.45,1.89,3.68,-0.49,35.85,-59.85,-42.75,21.90,03/22/2020,00:00:33.100,0,0,0,0,0,0,0,9999,9.968,
01/01/2000,00:00:34.34,75.68,-30.76,-969.73,2.29,-0.51,-0.67,34.95,-62.70,-41.85,22.04,03/22/2020,00:00:33.200,0,0,0,0,0,0,0,9999,9.968,
01/01/2000,00:00:34.43,90.82,-7.81,-965.82,0.79,-0.63,-0.05,32.55,-62.55,-40.20,22.09,03/22/2020,00:00:33.300,0,0,0,0,0,0,0,9999,9.968,
01/01/2000,00:00:34.53,65.92,-7.81,-975.59,2.42,-0.03,-2.39,34.35,-62.25,-41.25,22.09,03/22/2020,00:00:33.400,0,0,0,0,0,0,0,9999,9.968,
01/01/2000,00:00:34.63,21.97,128.91,-978.52,-0.31,-1.78,-0.88,34.80,-59.55,-42.30,22.04,03/22/2020,00:00:33.500,0,0,0,0,0,0,0,9999,9.968,
01/01/2000,00:00:34.73,21.00,-16.11,-934.08,1.55,-0.42,-1.87,33.0,-64.35,-39.30,21.90,03/22/2020,00:00:33.600,0,0,0,0,0,0,0,9999,9.968,
01/01/2000,00:00:34.83,88.38,-43.95,-916.99,4.39,-0.70,1.60,36.15,-59.85,-42.75,21.99,03/22/2020,00:00:33.700,0,0,0,0,0,0,0,9999,9.969,
01/01/2000,00:00:34.93,83.98,35.16,-1011.23,0.15,1.44,-0.07,36.0,-60.15,-43.65,22.09,03/22/2020,00:00:33.800,0,0,0,0,0,0,0,9999,9.969,
01/01/2000,00:00:35.03,115.23,-19.53,-989.75,2.15,1.76,-1.85,33.30,-61.80,-39.45,22.04,03/22/2020,00:00:33.900,0,0,0,0,0,0,0,9999,9.969,
01/01/2000,00:00:35.13,79.59,-8.30,-955.08,1.37,1.93,-1.31,33.75,-61.20,-40.35,21.90,03/22/2020,00:00:34.000,0,0,0,0,0,0,0,9999,9.969,
01/01/2000,00:00:35.23,120.12,32.71,-974.61,-0.05,-3.02,-0.32,34.80,-59.55,-43.80,22.18,03/22/2020,00:00:34.100,0,0,0,0,0,0,0,9999,9.969,
01/01/2000,00:00:35.33,72.27,12.21,-933.11,1.57,3.40,-0.70,35.70,-59.25,-42.90,22.37,03/22/2020,00:00:34.200,0,0,0,0,0,0,0,9999,9.969,
01/01/2000,00:00:35.43,72.27,-4.88,-1026.86,-2.39,1.92,0.09,33.75,-61.65,-41.40,21.99,03/22/2020,00:00:34.300,0,0,0,0,0,0,0,9999,9.969,
01/01/2000,00:00:35.53,80.57,13.67,-960.94,-1.12,-2.56,-0.46,34.95,-60.45,-43.95,22.23,03/22/2020,00:00:34.400,0,0,0,0,0,0,0,9999,9.972,
01/01/2000,00:00:35.63,105.47,26.37,-1038.09,4.33,-2.32,-3.47,33.60,-60.60,-40.95,21.99,03/22/2020,00:00:34.500,0,0,0,0,0,0,0,9999,9.972,
01/01/2000,00:00:35.73,184.57,12.21,-982.91,10.63,-8.97,-0.73,32.85,-61.05,-42.0,22.04,03/22/2020,00:00:34.600,0,0,0,0,0,0,0,9999,9.972,
01/01/2000,00:00:35.83,111.33,-153.81,-959.47,4.15,-3.56,-1.44,34.35,-61.80,-41.25,22.04,03/22/2020,00:00:34.700,0,0,0,0,0,0,0,9999,9.963,
01/01/2000,00:00:35.93,90.33,-71.78,-974.12,2.79,2.21,-0.95,35.70,-61.20,-42.45,22.09,03/22/2020,00:00:34.800,0,0,0,0,0,0,0,9999,9.970,
01/01/2000,00:00:36.03,98.14,-21.97,-954.59,2.03,-0.16,0.09,35.25,-60.90,-42.45,22.28,03/22/2020,00:00:34.900,0,0,0,0,0,0,0,9999,9.970,
01/01/2000,00:00:36.13,67.38,-23.44,-961.91,3.65,2.18,0.28,35.25,-59.70,-41.40,21.99,03/22/2020,00:00:35.000,0,0,0,0,0,0,0,9999,9.970,
01/01/2000,00:00:36.23,74.71,-12.70,-949.71,2.56,-0.95,0.66,34.35,-61.80,-39.45,22.23,03/22/2020,00:00:35.100,0,0,0,0,0,0,0,9999,9.970,
01/01/2000,00:00:36.33,75.68,-16.11,-949.22,0.92,-0.75,1.29,34.05,-61.80,-41.25,22.18,03/22/2020,00:00:35.200,0,0,0,0,0,0,0,9999,9.973,
01/01/2000,00:00:36.43,80.08,-16.60,-979.98,2.36,1.19,-2.48,35.25,-60.90,-41.85,22.18,03/22/2020,00:00:35.300,0,0,0,0,0,0,0,9999,9.973,
01/01/2000,00:00:36.53,86.91,-21.48,-970.70,2.98,-0.34,1.79,34.50,-61.95,-39.90,22.23,03/22/2020,00:00:35.400,0,0,0,0,0,0,0,9999,9.973,
01/01/2000,00:00:36.63,70.80,-13.67,-969.73,0.24,-0.99,0.0,35.70,-60.15,-42.15,22.09,03/22/2020,00:00:35.500,0,0,0,0,0,0,0,9999,9.973,
01/01/2000,00:00:36.73,66.89,-21.00,-972.66,3.18,-2.11,1.50,35.70,-60.90,-43.95,22.23,03/22/2020,00:00:35.700,0,0,0,0,0,0,0,9999,9.938,
01/01/2000,00:00:36.93,74.22,-26.37,-984.38,2.89,-0.10,-2.67,34.20,-62.70,-39.90,22.23,03/22/2020,00:00:35.800,0,0,0,0,0,0,0,9999,9.935,
01/01/2000,00:00:37.03,87.89,-24.90,-993.16,1.11,0.68,0.58,36.45,-60.90,-43.20,22.09,03/22/2020,00:00:35.900,0,0,0,0,0,0,0,9999,9.941,
01/01/2000,00:00:37.13,70.80,-12.21,-971.19,2.08,0.84,-0.31,36.15,-59.55,-42.30,22.23,03/22/2020,00:00:36.000,0,0,0,0,0,0,0,9999,9.941,
01/01/2000,00:00:37.23,67.87,-14.16,-975.59,4.14,0.38,-0.57,35.10,-59.85,-42.0,22.37,03/22/2020,00:00:36.100,0,0,0,0,0,0,0,9999,9.942,
01/01/2000,00:00:37.33,72.27,-29.79,-959.96,2.51,0.11,-1.11,36.45,-61.65,-43.65,22.28,03/22/2020,00:00:36.200,0,0,0,0,0,0,0,9999,9.942,
01/01/2000,00:00:37.43,72.75,-23.93,-980.96,1.49,1.30,0.92,33.60,-62.25,-39.75,22.18,03/22/2020,00:00:36.300,0,0,0,0,0,0,0,9999,9.942,
01/01/2000,00:00:37.53,82.52,-16.60,-967.29,0.95,-0.49,-3.85,34.05,-63.30,-39.0,22.23,03/22/2020,00:00:36.400,0,0,0,0,0,0,0,9999,9.942,
01/01/2000,00:00:37.63,69.34,-13.18,-984.38,-0.12,-1.24,-3.19,34.50,-62.40,-40.35,22.23,03/22/2020,00:00:36.500,0,0,0,0,0,0,0,9999,9.942,
01/01/2000,00:00:37.73,72.75,-32.23,-960.94,3.76,3.09,0.44,35.70,-62.40,-42.90,22.18,03/22/2020,00:00:36.600,0,0,0,0,0,0,0,9999,9.942,
01/01/2000,00:00:37.83,89.84,-16.60,-970.21,2.40,1.32,-0.92,34.80,-62.25,-40.50,22.28,03/22/2020,00:00:36.700,0,0,0,0,0,0,0,9999,9.943,
01/01/2000,00:00:37.93,81.05,-21.97,-991.21,0.79,1.95,-4.26,36.15,-61.05,-43.05,22.04,03/22/2020,00:00:36.800,0,0,0,0,0,0,0,9999,9.946,
01/01/2000,00:00:38.03,90.33,3.42,-961.43,2.20,1.20,-2.69,36.15,-60.60,-42.75,22.57,03/22/2020,00:00:36.900,0,0,0,0,0,0,0,9999,9.946,
01/01/2000,00:00:38.13,79.59,2.44,-968.75,1.04,-0.74,-1.23,33.45,-62.70,-39.60,22.18,03/22/2020,00:00:37.000,0,0,0,0,0,0,0,9999,9.937,
01/01/2000,00:00:38.23,68.36,-20.51,-971.68,1.76,2.58,-1.18,36.0,-61.20,-43.20,21.90,03/22/2020,00:00:37.100,0,0,0,0,0,0,0,9999,9.943,
01/01/2000,00:00:38.33,77.64,29.30,-954.10,2.18,-1.23,-1.68,36.45,-60.45,-42.90,22.23,03/22/2020,00:00:37.200,0,0,0,0,0,0,0,9999,9.943,
01/01/2000,00:00:38.43,75.68,-24.90,-966.80,3.13,-0.47,-0.47,36.0,-60.15,-42.45,22.18,03/22/2020,00:00:37.300,0,0,0,0,0,0,0,9999,9.944,
01/01/2000,00:00:38.53,88.38,-22.46,-969.24,2.42,1.02,-3.28,34.95,-61.65,-41.10,22.09,03/22/2020,00:00:37.400,0,0,0,0,0,0,0,9999,9.944,
01/01/2000,00:00:38.63,132.81,-333.50,-819.34,5.21,-3.81,0.39,36.15,-59.85,-43.50,22.18,03/22/2020,00:00:37.500,0,0,0,0,0,0,0,9999,9.944,
01/01/2000,00:00:38.73,80.57,-33.69,-956.05,0.28,1.82,-2.20,33.60,-62.25,-38.25,22.04,03/22/2020,00:00:37.600,0,0,0,0,0,0,0,9999,9.944,
01/01/2000,00:00:38.83,100.10,-14.65,-963.38,2.19,1.33,-4.41,34.20,-61.95,-40.65,22.28,03/22/2020,00:00:37.700,0,0,0,0,0,0,0,9999,9.944,
01/01/2000,00:00:38.93,80.08,-1.95,-958.01,0.63,-1.04,-0.98,34.20,-61.95,-40.65,22.28,03/22/2020,00:00:37.800,0,0,0,0,0,0,0,9999,9.944,
01/01/2000,00:00:39.03,74.71,-22.46,-951.17,2.95,1.84,0.98,36.60,-61.50,-43.50,22.09,03/22/2020,00:00:37.900,0,0,0,0,0,0,0,9999,9.944,
01/01/2000,00:00:39.13,70.80,-25.88,-977.54,3.06,2.42,-1.27,36.60,-60.60,-42.30,22.23,03/22/2020,00:00:38.000,0,0,0,0,0,0,0,9999,9.939,
01/01/2000,00:00:39.24,70.80,-22.95,-976.56,0.47,3.65,-1.46,35.70,-60.90,-42.45,21.99,03/22/2020,00:00:38.100,0,0,0,0,0,0,0,9999,9.945,
01/01/2000,00:00:39.34,79.59,-18.07,-969.73,2.24,1.10,-0.63,34.05,-62.25,-40.95,22.09,03/22/2020,00:00:38.200,0,0,0,0,0,0,0,9999,9.945,
01/01/2000,00:00:39.44,76.66,-18.07,-970.70,3.66,1.18,0.40,35.25,-61.20,-42.90,22.52,03/22/2020,00:00:38.300,0,0,0,0,0,0,0,9999,9.945,
01/01/2000,00:00:39.54,75.68,-29.79,-978.03,3.40,0.48,-3.42,36.45,-61.65,-43.20,22.52,03/22/2020,00:00:38.400,0,0,0,0,0,0,0,9999,9.945,
01/01/2000,00:00:39.64,92.77,-20.02,-958.01,2.55,2.09,-1.56,35.10,-61.50,-40.20,22.18,03/22/2020,00:00:38.500,0,0,0,0,0,0,0,9999,9.945,
01/01/2000,00:00:39.73,86.43,-8.79,-974.12,2.79,-0.41,0.77,35.25,-60.90,-42.15,22.52,03/22/2020,00:00:38.600,0,0,0,0,0,0,0,9999,9.946,
01/01/2000,00:00:39.83,69.34,-25.39,-960.45,1.47,-0.13,-0.25,35.10,-61.50,-41.25,22.37,03/22/2020,00:00:38.700,0,0,0,0,0,0,0,9999,9.946,
01/01/2000,00:00:39.93,79.10,-18.07,-958.98,3.56,-0.92,1.80,33.45,-62.40,-41.40,22.42,03/22/2020,00:00:38.800,0,0,0,0,0,0,0,9999,9.946,
01/01/2000,00:00:40.03,71.29,-21.48,-975.10,1.16,0.66,-1.27,37.20,-61.95,-42.90,22.52,03/22/2020,00:00:38.900,0,0,0,0,0,0,0,9999,9.946,
01/01/2000,00:00:40.13,62.50,-20.02,-960.94,1.08,0.82,-1.30,36.0,-60.90,-43.65,22.04,03/22/2020,00:00:39.000,0,0,0,0,0,0,0,9999,9.946,
01/01/2000,00:00:40.23,75.20,-20.51,-966.31,1.77,1.18,0.15,36.0,-60.45,-43.65,22.28,03/22/2020,00:00:39.100,0,0,0,0,0,0,0,9999,9.946,
01/01/2000,00:00:40.33,71.78,-32.23,-972.66,2.02,-0.27,-3.29,34.95,-60.15,-43.20,22.18,03/22/2020,00:00:39.200,0,0,0,0,0,0,0,9999,9.946,
01/01/2000,00:00:40.43,77.64,-18.07,-951.66,3.18,-0.08,-0.29,34.80,-62.25,-42.30,22.57,03/22/2020,00:00:39.300,0,0,0,0,0,0,0,9999,9.947,
01/01/2000,00:00:40.53,81.54,-17.58,-957.52,2.82,-1.83,-0.74,34.80,-61.05,-39.45,22.23,03/22/2020,00:00:39.400,0,0,0,0,0,0,0,9999,9.947,
01/01/2000,00:00:40.63,72.75,-19.04,-968.26,2.71,4.85,-2.67,34.95,-60.90,-42.90,22.04,03/22/2020,00:00:39.500,0,0,0,0,0,0,0,9999,9.947,
01/01/2000,00:00:40.73,59.08,-22.46,-964.36,1.42,3.54,-0.15,36.0,-61.20,-43.20,22.09,03/22/2020,00:00:39.600,0,0,0,0,0,0,0,9999,9.947,
01/01/2000,00:00:40.83,66.41,-27.83,-958.98,2.20,0.98,-0.37,34.35,-60.60,-40.20,22.28,03/22/2020,00:00:39.700,0,0,0,0,0,0,0,9999,9.947,
01/01/2000,00:00:40.93,68.85,-20.02,-969.73,1.66,0.18,-2.40,35.25,-60.90,-42.90,22.23,03/22/2020,00:00:39.800,0,0,0,0,0,0,0,9999,9.950,
01/01/2000,00:00:41.03,64.45,-23.44,-959.47,3.21,-0.95,0.09,36.45,-61.95,-41.85,22.37,03/22/2020,00:00:39.900,0,0,0,0,0,0,0,9999,9.950,
01/01/2000,00:00:41.13,75.68,-28.81,-978.03,2.21,-0.49,0.23,33.60,-61.80,-41.25,22.28,03/22/2020,00:00:40.000,0,0,0,0,0,0,0,9999,9.942,
01/01/2000,00:00:41.23,64.45,-19.04,-951.17,2.30,0.08,-0.21,35.85,-61.80,-42.30,22.37,03/22/2020,00:00:40.100,0,0,0,0,0,0,0,9999,9.948,
01/01/2000,00:00:41.33,77.64,-19.53,-965.82,3.05,-1.09,-0.62,36.90,-61.05,-43.05,22.42,03/22/2020,00:00:40.200,0,0,0,0,0,0,0,9999,9.948,
01/01/2000,00:00:41.43,72.75,-13.67,-964.36,2.25,-0.20,-0.82,36.15,-61.50,-43.05,22.57,03/22/2020,00:00:40.300,0,0,0,0,0,0,0,9999,9.948,
01/01/2000,00:00:41.53,81.05,-16.11,-962.89,0.59,2.24,-0.49,33.60,-63.0,-41.55,22.42,03/22/2020,00:00:40.400,0,0,0,0,0,0,0,9999,9.948,
01/01/2000,00:00:41.63,72.75,-28.32,-969.24,2.01,-1.04,-0.21,34.80,-62.55,-41.25,22.28,03/22/2020,00:00:40.500,0,0,0,0,0,0,0,9999,9.948,
01/01/2000,00:00:41.73,84.47,-10.25,-969.24,3.08,-1.04,-2.11,34.05,-62.55,-41.55,22.37,03/22/2020,00:00:40.600,0,0,0,0,0,0,0,9999,9.948,
01/01/2000,00:00:41.83,83.98,-11.23,-968.26,1.84,2.01,-0.33,36.45,-61.95,-42.90,22.42,03/22/2020,00:00:40.700,0,0,0,0,0,0,0,9999,9.951,
01/01/2000,00:00:41.93,77.15,-33.69,-962.89,3.28,-1.21,-2.02,35.10,-61.80,-41.25,22.28,03/22/2020,00:00:40.800,0,0,0,0,0,0,0,9999,9.951,
01/01/2000,00:00:42.03,73.73,-24.90,-967.77,0.15,1.10,-0.82,36.45,-61.20,-43.65,22.37,03/22/2020,00:00:40.900,0,0,0,0,0,0,0,9999,9.944,
01/01/2000,00:00:42.14,68.85,-19.53,-968.26,1.05,0.27,2.60,32.70,-62.70,-39.90,22.52,03/22/2020,00:00:41.000,0,0,0,0,0,0,0,9999,9.949,
01/01/2000,00:00:42.24,72.27,-11.72,-958.98,1.85,-0.40,-1.89,35.85,-62.55,-42.75,22.37,03/22/2020,00:00:41.100,0,0,0,0,0,0,0,9999,9.949,
01/01/2000,00:00:42.34,72.27,-13.67,-946.29,0.94,-0.24,1.34,34.20,-61.95,-40.65,22.57,03/22/2020,00:00:41.200,0,0,0,0,0,0,0,9999,9.949,
01/01/2000,00:00:42.44,82.52,-13.18,-974.61,1.02,-1.24,1.18,36.45,-62.40,-43.65,22.23,03/22/2020,00:00:41.300,0,0,0,0,0,0,0,9999,9.949,
01/01/2000,00:00:42.54,76.17,-11.23,-961.43,-0.37,0.65,0.97,35.55,-60.60,-42.0,22.18,03/22/2020,00:00:41.400,0,0,0,0,0,0,0,9999,9.949,
01/01/2000,00:00:42.64,67.87,-26.37,-958.98,1.27,0.85,0.68,34.35,-62.25,-41.55,22.37,03/22/2020,00:00:41.500,0,0,0,0,0,0,0,9999,9.949,
01/01/2000,00:00:42.73,69.34,11.72,-990.23,3.59,-2.06,-0.20,33.60,-62.55,-39.0,22.42,03/22/2020,00:00:41.600,0,0,0,0,0,0,0,9999,9.950,
01/01/2000,00:00:42.83,67.87,1.46,-972.66,3.21,0.11,0.40,34.05,-61.80,-40.20,22.71,03/22/2020,00:00:41.700,0,0,0,0,0,0,0,9999,9.950,
01/01/2000,00:00:42.93,79.10,-2.44,-947.75,2.63,-1.27,-3.18,35.85,-61.05,-43.50,22.18,03/22/2020,00:00:41.800,0,0,0,0,0,0,0,9999,9.950,
01/01/2000,00:00:43.03,91.31,28.81,-971.68,1.69,-0.85,1.21,34.80,-61.80,-39.75,22.28,03/22/2020,00:00:41.900,0,0,0,0,0,0,0,9999,9.950,
01/01/2000,00:00:43.13,76.17,-6.35,-960.45,4.34,1.85,-2.42,35.70,-61.65,-42.15,22.23,03/22/2020,00:00:42.000,0,0,0,0,0,0,0,9999,9.950,
01/01/2000,00:00:43.23,82.52,-63.96,-947.27,1.83,-1.50,-1.03,36.90,-61.80,-44.10,22.28,03/22/2020,00:00:42.100,0,0,0,0,0,0,0,9999,9.950,
01/01/2000,00:00:43.33,123.05,-58.59,-999.02,1.98,-1.31,1.50,35.10,-62.25,-40.95,22.57,03/22/2020,00:00:42.200,0,0,0,0,0,0,0,9999,9.950,
01/01/2000,00:00:43.43,91.31,-56.15,-971.19,-4.13,3.47,-0.36,35.10,-61.80,-40.50,22.57,03/22/2020,00:00:42.300,0,0,0,0,0,0,0,9999,9.950,
01/01/2000,00:00:43.53,100.59,-22.46,-967.29,-0.24,1.83,-0.05,35.10,-62.25,-43.05,22.71,03/22/2020,00:00:42.400,0,0,0,0,0,0,0,9999,9.951,
01/01/2000,00:00:43.63,82.52,-54.20,-1013.67,2.98,0.44,-1.32,36.60,-61.50,-43.05,22.28,03/22/2020,00:00:42.500,0,0,0,0,0,0,0,9999,9.951,
01/01/2000,00:00:43.73,88.38,-25.39,-938.96,1.78,-1.82,0.47,36.15,-61.05,-43.50,22.57,03/22/2020,00:00:42.600,0,0,0,0,0,0,0,9999,9.951,
01/01/2000,00:00:43.83,65.92,-14.16,-977.54,1.62,2.79,-0.33,34.95,-62.40,-39.90,22.42,03/22/2020,00:00:42.800,0,0,0,0,0,0,0,9999,9.924,
01/01/2000,00:00:44.03,71.29,-12.70,-974.61,1.69,-1.08,-0.11,36.15,-61.05,-43.05,22.61,03/22/2020,00:00:42.900,0,0,0,0,0,0,0,9999,9.929,
01/01/2000,00:00:44.13,90.33,-57.62,-970.21,2.42,-2.63,-1.38,34.80,-63.0,-40.95,22.61,03/22/2020,00:00:43.000,0,0,0,0,0,0,0,9999,9.922,
01/01/2000,00:00:44.23,71.29,-38.09,-946.29,2.11,1.18,0.36,35.25,-61.95,-42.45,22.61,03/22/2020,00:00:43.100,0,0,0,0,0,0,0,9999,9.927,
01/01/2000,00:00:44.33,69.82,-30.27,-994.14,-0.26,2.31,-3.93,36.15,-61.50,-43.80,22.71,03/22/2020,00:00:43.200,0,0,0,0,0,0,0,9999,9.927,
01/01/2000,00:00:44.43,92.77,-23.93,-977.05,1.18,0.62,-2.89,36.0,-60.15,-43.20,22.52,03/22/2020,00:00:43.300,0,0,0,0,0,0,0,9999,9.928,
01/01/2000,00:00:44.53,68.36,-41.02,-948.73,2.57,1.50,-1.32,35.85,-61.80,-43.50,22.42,03/22/2020,00:00:43.400,0,0,0,0,0,0,0,9999,9.928,
01/01/2000,00:00:44.63,55.66,-4.88,-979.00,2.13,-1.30,-0.21,34.95,-62.40,-40.35,22.71,03/22/2020,00:00:43.500,0,0,0,0,0,0,0,9999,9.928,
01/01/2000,00:00:44.73,82.52,-18.55,-963.87,0.17,3.33,-3.26,34.95,-60.45,-41.10,22.52,03/22/2020,00:00:43.600,0,0,0,0,0,0,0,9999,9.928,
01/01/2000,00:00:44.83,61.52,-0.49,-962.89,1.17,-2.76,-2.59,36.45,-59.25,-42.45,22.42,03/22/2020,00:00:43.700,0,0,0,0,0,0,0,9999,9.928,
01/01/2000,00:00:44.93,68.85,-19.04,-972.66,1.95,-1.52,-0.29,34.80,-60.30,-42.75,22.61,03/22/2020,00:00:43.800,0,0,0,0,0,0,0,9999,9.931,
01/01/2000,00:00:45.03,72.27,-13.18,-943.36,1.28,0.78,-0.76,34.05,-62.55,-40.20,22.71,03/22/2020,00:00:43.900,0,0,0,0,0,0,0,9999,9.931,
01/01/2000,00:00:45.13,83.50,-32.23,-980.96,1.15,-1.37,-0.55,35.55,-60.60,-42.0,22.42,03/22/2020,00:00:44.000,0,0,0,0,0,0,0,9999,9.924,
01/01/2000,00:00:45.24,-0.98,39.06,-896.00,7.12,-9.37,-1.44,34.35,-63.30,-39.45,22.52,03/22/2020,00:00:44.100,0,0,0,0,0,0,0,9999,9.929,
01/01/2000,00:00:45.34,145.51,-8.30,-1023.93,1.56,-2.80,-4.16,34.95,-61.65,-41.10,22.42,03/22/2020,00:00:44.200,0,0,0,0,0,0,0,9999,9.929,
01/01/2000,00:00:45.44,196.78,40.04,-1011.72,3.42,7.06,0.56,35.85,-61.50,-43.05,22.28,03/22/2020,00:00:44.300,0,0,0,0,0,0,0,9999,9.929,
01/01/2000,00:00:45.54,34.67,-17.58,-1058.11,6.65,-0.80,-1.30,35.10,-61.05,-43.05,22.42,03/22/2020,00:00:44.400,0,0,0,0,0,0,0,9999,9.929,
01/01/2000,00:00:45.64,63.96,-16.60,-1027.83,-0.91,0.13,-2.60,35.85,-60.60,-44.10,22.37,03/22/2020,00:00:44.500,0,0,0,0,0,0,0,9999,9.930,
01/01/2000,00:00:45.74,81.05,0.49,-967.77,2.61,-3.63,0.44,35.55,-62.55,-40.95,22.57,03/22/2020,00:00:44.600,0,0,0,0,0,0,0,9999,9.930,
01/01/2000,00:00:45.83,52.73,-14.16,-957.03,0.82,-0.93,-3.13,32.40,-61.95,-39.60,22.57,03/22/2020,00:00:44.700,0,0,0,0,0,0,0,9999,9.930,
01/01/2000,00:00:45.93,65.43,-19.04,-978.03,3.35,-2.40,-0.90,33.45,-62.40,-41.10,22.52,03/22/2020,00:00:44.800,0,0,0,0,0,0,0,9999,9.930,
01/01/2000,00:00:46.03,59.08,-20.51,-967.77,2.50,-0.65,-0.94,36.0,-61.20,-43.65,22.76,03/22/2020,00:00:44.900,0,0,0,0,0,0,0,9999,9.930,
01/01/2000,00:00:46.13,59.57,-12.21,-967.29,3.04,0.18,-1.05,33.75,-59.70,-41.40,22.90,03/22/2020,00:00:45.000,0,0,0,0,0,0,0,9999,9.930,
01/01/2000,00:00:46.23,64.94,-16.60,-981.45,0.21,-0.34,-0.02,36.45,-60.15,-44.40,22.71,03/22/2020,00:00:45.100,0,0,0,0,0,0,0,9999,9.931,
01/01/2000,00:00:46.33,55.18,-16.60,-951.17,1.78,-0.02,-2.21,34.80,-60.60,-44.10,22.76,03/22/2020,00:00:45.200,0,0,0,0,0,0,0,9999,9.931,
01/01/2000,00:00:46.43,63.96,-26.37,-974.61,1.46,2.17,-2.45,34.05,-63.0,-42.30,22.42,03/22/2020,00:00:45.300,0,0,0,0,0,0,0,9999,9.931,
01/01/2000,00:00:46.53,71.29,-30.76,-940.43,1.20,-0.23,-1.59,34.05,-61.80,-42.75,22.52,03/22/2020,00:00:45.400,0,0,0,0,0,0,0,9999,9.931,
01/01/2000,00:00:46.63,57.62,-17.09,-957.52,3.80,0.12,-0.56,34.20,-60.15,-44.40,22.71,03/22/2020,00:00:45.500,0,0,0,0,0,0,0,9999,9.931,
01/01/2000,00:00:46.73,46.39,-24.41,-984.38,1.80,0.61,-2.63,35.10,-60.60,-44.55,22.81,03/22/2020,00:00:45.600,0,0,0,0,0,0,0,9999,9.931,
01/01/2000,00:00:46.83,62.01,-17.09,-959.96,2.76,-0.70,-0.78,32.40,-61.65,-42.45,22.76,03/22/2020,00:00:45.700,0,0,0,0,0,0,0,9999,9.932,
01/01/2000,00:00:46.93,84.47,-8.79,-958.01,1.34,2.04,-1.24,34.20,-60.15,-45.15,22.61,03/22/2020,00:00:45.800,0,0,0,0,0,0,0,9999,9.934,
01/01/2000,00:00:47.03,67.38,-16.11,-971.19,4.08,-0.66,-1.55,33.75,-61.20,-43.20,22.76,03/22/2020,00:00:46.000,0,0,0,0,0,0,0,9999,9.907,
01/01/2000,00:00:47.22,51.76,-26.86,-968.75,1.13,1.95,0.23,34.05,-59.55,-43.80,22.71,03/22/2020,00:00:46.100,0,0,0,0,0,0,0,9999,9.905,
01/01/2000,00:00:47.33,56.64,-28.32,-957.52,3.22,-1.05,-0.70,34.35,-60.30,-44.55,22.76,03/22/2020,00:00:46.200,0,0,0,0,0,0,0,9999,9.912,
01/01/2000,00:00:47.43,68.85,-21.48,-944.82,0.37,3.03,-2.20,35.25,-60.15,-42.90,22.81,03/22/2020,00:00:46.300,0,0,0,0,0,0,0,9999,9.912,
01/01/2000,00:00:47.53,59.08,-19.04,-959.96,2.95,0.37,-2.91,34.50,-59.25,-44.40,22.52,03/22/2020,00:00:46.400,0,0,0,0,0,0,0,9999,9.906,
01/01/2000,00:00:47.64,52.73,-38.09,-965.82,0.92,-0.83,-4.22,36.0,-61.65,-43.95,22.61,03/22/2020,00:00:46.500,0,0,0,0,0,0,0,9999,9.910,
01/01/2000,00:00:47.74,66.89,-14.65,-940.92,0.92,0.83,-0.69,32.70,-60.15,-42.45,22.81,03/22/2020,00:00:46.600,0,0,0,0,0,0,0,9999,9.911,
01/01/2000,00:00:47.84,53.71,-28.81,-965.82,1.02,0.24,-3.23,35.10,-59.85,-43.80,22.71,03/22/2020,00:00:46.700,0,0,0,0,0,0,0,9999,9.911,
01/01/2000,00:00:47.93,39.06,-11.23,-956.05,0.02,0.21,-2.15,36.45,-60.15,-44.40,22.76,03/22/2020,00:00:46.800,0,0,0,0,0,0,0,9999,9.911,
01/01/2000,00:00:48.03,41.50,-21.00,-958.50,1.56,-2.30,1.40,35.10,-59.55,-44.10,22.81,03/22/2020,00:00:46.900,0,0,0,0,0,0,0,9999,9.911,
01/01/2000,00:00:48.13,47.85,-27.83,-954.59,2.25,-2.05,0.09,33.0,-61.95,-41.40,22.37,03/22/2020,00:00:47.000,0,0,0,0,0,0,0,9999,9.911,
01/01/2000,00:00:48.23,26.37,-25.88,-959.47,1.53,-0.85,1.11,31.95,-61.65,-42.15,22.57,03/22/2020,00:00:47.100,0,0,0,0,0,0,0,9999,9.912,
01/01/2000,00:00:48.33,62.01,-27.34,-957.52,0.06,1.41,0.26,33.0,-62.40,-41.85,22.52,03/22/2020,00:00:47.300,0,0,0,0,0,0,0,9999,9.888,
01/01/2000,00:00:48.53,70.80,-7.32,-959.47,-0.79,0.80,-1.89,33.60,-61.05,-44.55,22.71,03/22/2020,00:00:47.400,0,0,0,0,0,0,0,9999,9.892,
01/01/2000,00:00:48.63,46.88,-24.41,-979.00,4.05,-1.54,-1.25,34.95,-60.15,-44.40,22.57,03/22/2020,00:00:47.500,0,0,0,0,0,0,0,9999,9.886,
01/01/2000,00:00:48.74,43.95,-14.65,-958.50,4.90,0.58,1.73,35.70,-60.90,-43.95,22.57,03/22/2020,00:00:47.600,0,0,0,0,0,0,0,9999,9.891,
01/01/2000,00:00:48.84,59.08,-21.97,-955.57,3.76,-2.08,1.68,33.75,-61.65,-42.45,22.71,03/22/2020,00:00:47.700,0,0,0,0,0,0,0,9999,9.891,
01/01/2000,00:00:48.94,52.25,-23.93,-974.12,0.97,1.83,1.83,32.55,-59.85,-42.0,22.76,03/22/2020,00:00:47.800,0,0,0,0,0,0,0,9999,9.891,
01/01/2000,00:00:49.03,48.34,-21.97,-970.21,0.40,-0.27,-3.01,33.75,-60.90,-43.65,22.81,03/22/2020,00:00:47.900,0,0,0,0,0,0,0,9999,9.891,
01/01/2000,00:00:49.13,58.59,-29.79,-965.82,3.35,-0.28,0.30,33.60,-60.30,-44.10,22.71,03/22/2020,00:00:48.000,0,0,0,0,0,0,0,9999,9.892,
01/01/2000,00:00:49.23,68.85,-29.30,-950.20,0.33,-1.35,-1.79,35.55,-59.55,-44.10,22.76,03/22/2020,00:00:48.100,0,0,0,0,0,0,0,9999,9.892,
01/01/2000,00:00:49.33,53.71,-24.90,-977.05,1.92,-2.22,-0.19,32.40,-60.90,-42.90,22.37,03/22/2020,00:00:48.200,0,0,0,0,0,0,0,9999,9.892,
01/01/2000,00:00:49.43,44.92,-14.65,-969.24,3.31,-0.44,-0.59,32.85,-60.60,-43.80,22.57,03/22/2020,00:00:48.300,0,0,0,0,0,0,0,9999,9.892,
01/01/2000,00:00:49.53,56.64,-24.41,-986.82,2.60,2.22,-0.63,35.70,-59.25,-45.15,22.90,03/22/2020,00:00:48.400,0,0,0,0,0,0,0,9999,9.892,
01/01/2000,00:00:49.63,81.05,-17.58,-999.51,7.79,0.31,-1.05,32.70,-61.20,-42.45,22.57,03/22/2020,00:00:48.500,0,0,0,0,0,0,0,9999,9.893,
01/01/2000,00:00:49.73,81.54,-4.88,-1001.46,1.43,2.74,-2.66,35.25,-61.20,-44.70,22.76,03/22/2020,00:00:48.600,0,0,0,0,0,0,0,9999,9.893,
01/01/2000,00:00:49.83,50.29,-37.11,-996.58,1.73,-3.10,-0.82,35.10,-59.85,-45.60,22.37,03/22/2020,00:00:48.700,0,0,0,0,0,0,0,9999,9.893,
01/01/2000,00:00:49.93,64.94,-26.37,-997.07,0.53,2.05,-3.02,31.35,-60.60,-40.95,22.61,03/22/2020,00:00:48.800,0,0,0,0,0,0,0,9999,9.893,
01/01/2000,00:00:50.03,59.08,-55.66,-995.12,4.27,0.93,-2.42,35.25,-60.90,-43.20,22.71,03/22/2020,00:00:48.900,0,0,0,0,0,0,0,9999,9.894,
01/01/2000,00:00:50.13,71.78,-62.99,-959.96,3.27,-2.53,1.57,33.60,-58.35,-44.85,22.52,03/22/2020,00:00:49.000,0,0,0,0,0,0,0,9999,9.890,
01/01/2000,00:00:50.23,72.27,-23.93,-972.66,6.44,-0.31,1.74,36.0,-60.15,-45.45,22.71,03/22/2020,00:00:49.100,0,0,0,0,0,0,0,9999,9.894,
01/01/2000,00:00:50.33,76.17,-35.16,-962.89,0.27,0.46,-0.28,35.25,-58.95,-43.95,22.76,03/22/2020,00:00:49.200,0,0,0,0,0,0,0,9999,9.894,
01/01/2000,00:00:50.43,90.82,-39.06,-922.85,2.40,-0.02,-0.89,32.40,-60.45,-43.65,22.42,03/22/2020,00:00:49.300,0,0,0,0,0,0,0,9999,9.895,
01/01/2000,00:00:50.53,86.43,-17.58,-942.87,2.50,-2.50,-0.23,34.05,-60.30,-42.0,22.71,03/22/2020,00:00:49.400,0,0,0,0,0,0,0,9999,9.895,
01/01/2000,00:00:50.63,95.70,11.72,-953.61,1.42,2.05,0.86,34.50,-60.45,-42.90,22.57,03/22/2020,00:00:49.500,0,0,0,0,0,0,0,9999,9.895,
01/01/2000,00:00:50.73,89.84,-1.95,-949.71,3.40,1.47,-1.53,35.85,-58.35,-45.60,22.71,03/22/2020,00:00:49.600,0,0,0,0,0,0,0,9999,9.895,
01/01/2000,00:00:50.83,60.55,-30.76,-971.68,2.24,0.54,-2.18,34.80,-59.85,-42.75,22.61,03/22/2020,00:00:49.700,0,0,0,0,0,0,0,9999,9.895,
01/01/2000,00:00:50.93,64.45,-15.63,-952.15,4.83,-1.10,1.92,36.75,-60.45,-45.45,22.42,03/22/2020,00:00:49.800,0,0,0,0,0,0,0,9999,9.896,
01/01/2000,00:00:51.03,65.43,-13.67,-961.43,2.71,1.11,0.11,35.85,-59.10,-44.85,22.71,03/22/2020,00:00:49.900,0,0,0,0,0,0,0,9999,9.896,
01/01/2000,00:00:51.13,68.36,-18.55,-977.54,1.70,1.02,-1.73,33.60,-61.50,-41.25,22.81,03/22/2020,00:00:50.000,0,0,0,0,0,0,0,9999,9.892,
01/01/2000,00:00:51.24,67.87,-15.14,-951.17,1.23,2.37,-0.75,37.35,-60.30,-44.55,22.81,03/22/2020,00:00:50.100,0,0,0,0,0,0,0,9999,9.896,
01/01/2000,00:00:51.33,59.08,-14.16,-963.38,2.79,0.61,-0.48,35.55,-59.55,-44.55,22.57,03/22/2020,00:00:50.200,0,0,0,0,0,0,0,9999,9.896,
01/01/2000,00:00:51.43,65.43,-20.51,-964.36,1.99,-0.03,0.53,36.90,-60.60,-44.10,22.71,03/22/2020,00:00:50.300,0,0,0,0,0,0,0,9999,9.897,
01/01/2000,00:00:51.53,65.43,-17.09,-960.94,3.21,0.05,0.64,35.55,-61.80,-42.0,22.95,03/22/2020,00:00:50.400,0,0,0,0,0,0,0,9999,9.897,
01/01/2000,00:00:51.63,58.59,-22.95,-955.57,2.56,1.24,1.25,35.55,-60.30,-43.80,22.90,03/22/2020,00:00:50.600,0,0,0,0,0,0,0,9999,9.875,
01/01/2000,00:00:51.83,74.22,-20.51,-970.21,2.32,-1.89,-1.55,34.05,-62.55,-41.25,22.90,03/22/2020,00:00:50.700,0,0,0,0,0,0,0,9999,9.877,
01/01/2000,00:00:51.93,80.57,52.25,-932.13,11.53,11.34,-0.15,32.40,-61.65,-42.15,22.90,03/22/2020,00:00:50.800,0,0,0,0,0,0,0,9999,9.877,
01/01/2000,00:00:52.03,67.87,85.45,-930.66,-2.28,0.56,-3.50,33.0,-61.95,-40.35,22.76,03/22/2020,00:00:50.900,0,0,0,0,0,0,0,9999,9.878,
01/01/2000,00:00:52.13,95.21,-26.37,-951.66,2.43,-2.21,-2.01,34.35,-59.85,-44.55,22.81,03/22/2020,00:00:50.000,0,0,0,0,0,0,0,9999,9.874,
01/01/2000,00:00:52.23,81.54,-35.64,-956.54,-0.24,2.28,-2.99,34.35,-58.80,-43.05,22.81,03/22/2020,00:00:51.100,0,0,0,0,0,0,0,9999,9.878,
01/01/2000,00:00:52.33,70.80,-24.90,-991.70,1.31,1.56,0.38,34.50,-60.15,-42.90,22.81,03/22/2020,00:00:51.200,0,0,0,0,0,0,0,9999,9.878,
01/01/2000,00:00:52.43,70.80,-33.20,-966.31,3.01,-3.25,0.24,32.85,-61.50,-42.0,22.81,03/22/2020,00:00:51.300,0,0,0,0,0,0,0,9999,9.879,
01/01/2000,00:00:52.53,64.45,-17.09,-970.70,2.33,1.40,-1.47,34.95,-60.45,-41.40,22.95,03/22/2020,00:00:51.400,0,0,0,0,0,0,0,9999,9.879,
01/01/2000,00:00:52.63,82.03,3.42,-945.80,2.18,4.96,1.69,35.70,-60.45,-43.20,22.81,03/22/2020,00:00:51.500,0,0,0,0,0,0,0,9999,9.879,
01/01/2000,00:00:52.73,132.32,-10.25,-1033.69,4.23,-4.53,-2.38,33.75,-60.90,-41.10,22.90,03/22/2020,00:00:51.600,0,0,0,0,0,0,0,9999,9.879,
01/01/2000,00:00:52.83,45.90,-61.52,-1132.81,4.28,3.63,1.01,36.15,-61.05,-43.05,22.95,03/22/2020,00:00:51.700,0,0,0,0,0,0,0,9999,9.880,
01/01/2000,00:00:52.93,95.21,-30.27,-970.21,2.85,0.53,-1.97,34.50,-61.65,-44.70,22.90,03/22/2020,00:00:51.800,0,0,0,0,0,0,0,9999,9.880,
01/01/2000,00:00:53.03,80.08,-14.16,-967.29,2.79,0.37,-0.73,31.95,-61.20,-41.10,22.57,03/22/2020,00:00:51.900,0,0,0,0,0,0,0,9999,9.880,
01/01/2000,00:00:53.13,62.99,-21.48,-968.26,3.63,-1.02,-2.22,33.60,-60.30,-41.55,22.90,03/22/2020,00:00:51.000,0,0,0,0,0,0,0,9999,9.876,
01/01/2000,00:00:53.23,67.38,-19.04,-954.59,0.55,-0.91,0.11,35.25,-61.20,-43.65,23.05,03/22/2020,00:00:52.100,0,0,0,0,0,0,0,9999,9.880,
01/01/2000,00:00:53.33,85.94,-19.53,-998.54,3.24,1.54,-0.79,36.45,-59.70,-42.45,22.90,03/22/2020,00:00:52.200,0,0,0,0,0,0,0,9999,9.881,
01/01/2000,00:00:53.43,59.57,-24.90,-934.08,1.73,0.96,-1.66,35.25,-60.15,-42.15,22.57,03/22/2020,00:00:52.300,0,0,0,0,0,0,0,9999,9.881,
01/01/2000,00:00:53.53,66.41,-25.39,-971.68,1.67,1.41,0.18,33.45,-61.65,-41.40,22.76,03/22/2020,00:00:52.400,0,0,0,0,0,0,0,9999,9.881,
01/01/2000,00:00:53.63,69.34,-20.02,-977.05,2.12,1.48,0.63,33.45,-61.20,-40.35,22.76,03/22/2020,00:00:52.500,0,0,0,0,0,0,0,9999,9.881,
01/01/2000,00:00:53.73,72.75,-13.18,-954.59,2.01,-1.42,-2.57,32.55,-61.50,-41.55,22.95,03/22/2020,00:00:52.600,0,0,0,0,0,0,0,9999,9.882,
01/01/2000,00:00:53.83,76.17,-22.46,-984.38,2.58,-0.69,2.50,35.70,-60.90,-43.65,22.71,03/22/2020,00:00:52.700,0,0,0,0,0,0,0,9999,9.882,
01/01/2000,00:00:53.93,78.13,-11.72,-953.61,0.64,4.44,-0.55,32.10,-62.25,-42.0,22.90,03/22/2020,00:00:52.800,0,0,0,0,0,0,0,9999,9.882,
01/01/2000,00:00:54.03,67.87,-5.86,-948.73,1.12,2.93,-1.63,36.0,-60.90,-42.45,23.24,03/22/2020,00:00:52.900,0,0,0,0,0,0,0,9999,9.882,
01/01/2000,00:00:54.13,70.80,-34.18,-971.68,2.86,0.05,-2.24,36.15,-59.85,-44.10,23.09,03/22/2020,00:00:52.000,0,0,0,0,0,0,0,9999,9.879,
01/01/2000,00:00:54.24,76.17,-14.16,-988.77,4.10,-0.02,-4.97,32.40,-63.15,-39.30,22.90,03/22/2020,00:00:53.100,0,0,0,0,0,0,0,9999,9.881,
01/01/2000,00:00:54.34,63.96,-23.44,-958.50,1.76,-1.41,-2.55,34.05,-61.80,-41.55,22.90,03/22/2020,00:00:53.200,0,0,0,0,0,0,0,9999,9.881,
01/01/2000,00:00:54.44,71.29,-25.88,-970.21,4.46,2.73,-0.50,36.15,-61.05,-42.75,23.14,03/22/2020,00:00:53.300,0,0,0,0,0,0,0,9999,9.881,
01/01/2000,00:00:54.54,52.25,-24.41,-957.52,5.72,-2.30,2.52,35.55,-61.50,-43.50,22.81,03/22/2020,00:00:53.400,0,0,0,0,0,0,0,9999,9.882,
01/01/2000,00:00:54.64,50.78,-5.37,-943.85,2.39,0.85,-1.11,34.50,-61.20,-41.40,22.95,03/22/2020,00:00:53.500,0,0,0,0,0,0,0,9999,9.882,
01/01/2000,00:00:54.74,87.40,-25.39,-952.15,0.64,1.51,-1.31,33.60,-60.30,-44.85,22.95,03/22/2020,00:00:53.600,0,0,0,0,0,0,0,9999,9.882,
01/01/2000,00:00:54.84,58.11,-33.69,-953.61,3.38,-0.66,0.85,34.80,-62.25,-41.55,23.09,03/22/2020,00:00:53.700,0,0,0,0,0,0,0,9999,9.882,
01/01/2000,00:00:54.94,82.03,-27.34,-994.14,-0.24,3.56,-1.94,34.05,-62.25,-42.30,22.76,03/22/2020,00:00:53.800,0,0,0,0,0,0,0,9999,9.882,
01/01/2000,00:00:55.04,73.73,-12.21,-948.24,0.61,-1.37,-1.02,33.45,-61.95,-41.85,22.81,03/22/2020,00:00:53.900,0,0,0,0,0,0,0,9999,9.883,
01/01/2000,00:00:55.14,51.27,-27.34,-1002.93,1.18,-0.26,-0.21,34.80,-60.60,-43.50,22.81,03/22/2020,00:00:53.000,0,0,0,0,0,0,0,9999,9.883,
01/01/2000,00:00:55.24,66.89,-10.74,-970.70,-0.92,2.47,0.19,35.10,-61.80,-43.80,22.61,03/22/2020,00:00:54.100,0,0,0,0,0,0,0,9999,9.883,
01/01/2000,00:00:55.34,56.64,-17.09,-928.71,0.96,-0.74,-1.95,35.25,-61.20,-42.15,22.61,03/22/2020,00:00:54.200,0,0,0,0,0,0,0,9999,9.883,
01/01/2000,00:00:55.44,63.48,-22.95,-946.78,1.69,-1.05,-0.84,32.55,-63.0,-40.95,22.81,03/22/2020,00:00:54.300,0,0,0,0,0,0,0,9999,9.885,
01/01/2000,00:00:55.54,66.41,-21.48,-972.17,1.92,0.02,-2.47,34.35,-61.80,-41.25,22.81,03/22/2020,00:00:54.400,0,0,0,0,0,0,0,9999,9.886,
01/01/2000,00:00:55.64,63.48,-18.55,-922.36,2.26,-1.60,0.62,34.95,-60.90,-43.95,23.09,03/22/2020,00:00:54.500,0,0,0,0,0,0,0,9999,9.886,
01/01/2000,00:00:55.74,78.13,-15.14,-1012.70,1.49,1.10,-0.78,32.40,-62.40,-42.15,22.90,03/22/2020,00:00:54.600,0,0,0,0,0,0,0,9999,9.886,
01/01/2000,00:00:55.84,53.71,-21.97,-945.80,1.02,-0.36,0.85,35.70,-61.20,-42.15,22.90,03/22/2020,00:00:54.700,0,0,0,0,0,0,0,9999,9.886,
01/01/2000,00:00:55.94,68.85,-21.48,-973.14,-0.20,2.03,-1.27,36.45,-61.20,-43.95,23.05,03/22/2020,00:00:54.800,0,0,0,0,0,0,0,9999,9.887,
01/01/2000,00:00:56.04,62.01,-19.04,-997.07,2.0,-0.34,-0.74,32.70,-61.95,-42.45,22.95,03/22/2020,00:00:54.900,0,0,0,0,0,0,0,9999,9.887,
01/01/2000,00:00:56.14,65.92,-2.93,-960.45,1.30,-0.19,-2.57,33.30,-60.60,-41.55,23.14,03/22/2020,00:00:54.000,0,0,0,0,0,0,0,9999,9.887,
01/01/2000,00:00:56.23,65.92,-18.55,-1010.25,1.65,2.52,0.79,35.25,-61.20,-42.45,23.09,03/22/2020,00:00:55.100,0,0,0,0,0,0,0,9999,9.887,
01/01/2000,00:00:56.33,67.87,-24.41,-956.54,2.57,-2.79,-1.38,34.20,-61.95,-41.85,23.09,03/22/2020,00:00:55.100,0,0,0,0,0,0,0,9999,9.865,
01/01/2000,00:00:56.53,76.66,-18.07,-996.58,2.81,1.82,-2.05,35.55,-61.05,-42.0,23.05,03/22/2020,00:00:55.300,0,0,0,0,0,0,0,9999,9.869,
01/01/2000,00:00:56.63,54.20,-19.53,-933.11,2.47,-0.08,-0.21,32.85,-61.50,-40.50,23.09,03/22/2020,00:00:55.400,0,0,0,0,0,0,0,9999,9.869,
01/01/2000,00:00:56.73,70.80,-27.34,-996.09,4.02,0.39,-0.45,35.70,-61.20,-43.20,22.95,03/22/2020,00:00:55.500,0,0,0,0,0,0,0,9999,9.870,
01/01/2000,00:00:56.83,77.64,-22.95,-958.98,2.95,-0.31,-0.98,35.10,-60.30,-43.05,23.09,03/22/2020,00:00:55.600,0,0,0,0,0,0,0,9999,9.870,
01/01/2000,00:00:56.93,63.96,-15.63,-943.85,2.39,0.42,-2.29,33.75,-62.40,-41.40,23.09,03/22/2020,00:00:55.700,0,0,0,0,0,0,0,9999,9.870,
01/01/2000,00:00:57.03,68.36,-18.07,-989.75,2.54,1.68,-4.40,34.35,-62.25,-43.05,22.95,03/22/2020,00:00:55.800,0,0,0,0,0,0,0,9999,9.870,
01/01/2000,00:00:57.13,76.66,-13.67,-947.27,1.52,-2.19,-0.50,33.60,-62.25,-40.20,22.90,03/22/2020,00:00:55.900,0,0,0,0,0,0,0,9999,9.867,
01/01/2000,00:00:57.24,86.91,-13.67,-956.05,0.74,-0.56,-0.30,35.10,-60.30,-44.10,22.95,03/22/2020,00:00:56.000,0,0,0,0,0,0,0,9999,9.871,
01/01/2000,00:00:57.34,67.87,-17.09,-981.93,1.92,-1.81,-0.65,34.20,-61.20,-41.40,23.05,03/22/2020,00:00:56.100,0,0,0,0,0,0,0,9999,9.871,
01/01/2000,00:00:57.44,75.68,-14.65,-950.20,3.76,-1.36,0.27,35.70,-61.20,-43.20,22.90,03/22/2020,00:00:56.200,0,0,0,0,0,0,0,9999,9.871,
01/01/2000,00:00:57.53,71.29,-14.16,-965.33,1.05,-0.47,-2.53,34.95,-61.95,-43.20,23.24,03/22/2020,00:00:56.300,0,0,0,0,0,0,0,9999,9.872,
01/01/2000,00:00:57.63,71.29,-9.77,-987.30,2.33,0.53,1.85,35.55,-62.25,-43.05,23.24,03/22/2020,00:00:56.400,0,0,0,0,0,0,0,9999,9.872,
01/01/2000,00:00:57.73,75.68,-22.95,-946.29,2.08,0.45,-1.15,33.0,-63.15,-39.60,22.90,03/22/2020,00:00:56.500,0,0,0,0,0,0,0,9999,9.872,
01/01/2000,00:00:57.83,89.36,-28.32,-992.68,1.63,0.0,0.91,33.75,-60.90,-40.65,22.81,03/22/2020,00:00:56.600,0,0,0,0,0,0,0,9999,9.872,
01/01/2000,00:00:57.93,68.85,-26.37,-971.68,1.40,-2.50,1.60,36.0,-60.45,-42.90,22.71,03/22/2020,00:00:56.700,0,0,0,0,0,0,0,9999,9.872,
01/01/2000,00:00:58.03,82.52,-10.25,-968.75,2.58,-1.27,-0.76,35.85,-61.50,-43.05,22.95,03/22/2020,00:00:56.800,0,0,0,0,0,0,0,9999,9.873,
01/01/2000,00:00:58.13,77.64,-21.00,-996.09,-0.90,1.46,-6.57,33.0,-62.70,-41.40,23.33,03/22/2020,00:00:56.900,0,0,0,0,0,0,0,9999,9.873,
01/01/2000,00:00:58.23,76.17,-15.63,-941.41,2.83,0.01,-1.75,34.95,-61.95,-42.45,23.14,03/22/2020,00:00:57.000,0,0,0,0,0,0,0,9999,9.873,
01/01/2000,00:00:58.33,73.24,-18.55,-976.07,1.84,0.21,0.85,32.70,-62.40,-39.90,22.90,03/22/2020,00:00:57.100,0,0,0,0,0,0,0,9999,9.873,
01/01/2000,00:00:58.43,71.29,-27.83,-968.26,2.47,-0.75,0.27,32.10,-63.30,-40.20,23.09,03/22/2020,00:00:57.200,0,0,0,0,0,0,0,9999,9.874,
01/01/2000,00:00:58.53,73.24,-25.39,-950.20,2.07,1.29,0.15,34.95,-61.65,-43.20,23.24,03/22/2020,00:00:57.300,0,0,0,0,0,0,0,9999,9.874,
01/01/2000,00:00:58.63,62.50,-24.90,-986.33,2.39,0.71,-2.09,34.95,-61.20,-42.90,23.09,03/22/2020,00:00:57.400,0,0,0,0,0,0,0,9999,9.874,
01/01/2000,00:00:58.73,75.68,-26.37,-953.13,1.24,0.37,-0.49,35.85,-61.50,-43.50,22.90,03/22/2020,00:00:57.500,0,0,0,0,0,0,0,9999,9.874,
01/01/2000,00:00:58.83,83.01,-20.02,-969.24,2.21,0.45,0.03,33.0,-62.40,-41.10,23.33,03/22/2020,00:00:57.600,0,0,0,0,0,0,0,9999,9.876,
01/01/2000,00:00:58.93,59.57,-35.64,-968.26,1.86,-1.02,-1.71,32.55,-61.50,-40.95,22.81,03/22/2020,00:00:57.700,0,0,0,0,0,0,0,9999,9.877,
01/01/2000,00:00:59.03,73.24,-24.41,-946.78,3.09,-0.17,-1.31,34.35,-61.80,-40.50,22.90,03/22/2020,00:00:57.800,0,0,0,0,0,0,0,9999,9.871,
01/01/2000,00:00:59.13,73.73,-6.84,-979.00,0.47,0.0,-3.05,36.60,-61.50,-44.10,23.05,03/22/2020,00:00:57.900,0,0,0,0,0,0,0,9999,9.875,
01/01/2000,00:00:59.23,68.85,-14.65,-970.21,2.47,0.63,-1.66,33.75,-62.40,-40.65,23.09,03/22/2020,00:00:58.000,0,0,0,0,0,0,0,9999,9.856,
01/01/2000,00:00:59.43,63.48,-23.44,-963.38,2.81,3.51,-1.40,35.10,-61.05,-42.75,23.33,03/22/2020,00:00:58.200,0,0,0,0,0,0,0,9999,9.858,
01/01/2000,00:00:59.53,86.43,-18.07,-968.26,1.90,-0.68,-1.50,34.05,-63.0,-40.50,22.95,03/22/2020,00:00:58.300,0,0,0,0,0,0,0,9999,9.858,
01/01/2000,00:00:59.63,80.57,-13.67,-960.45,2.81,1.95,-0.26,34.50,-61.65,-42.90,23.24,03/22/2020,00:00:58.400,0,0,0,0,0,0,0,9999,9.859,
01/01/2000,00:00:59.73,79.10,-10.25,-976.07,1.60,0.21,-1.72,33.60,-62.55,-41.25,22.90,03/22/2020,00:00:58.500,0,0,0,0,0,0,0,9999,9.861,
01/01/2000,00:00:59.83,81.54,-10.25,-946.78,3.39,-1.98,0.34,35.25,-62.40,-45.15,23.09,03/22/2020,00:00:58.600,0,0,0,0,0,0,0,9999,9.861,
01/01/2000,00:00:59.93,78.13,-16.11,-989.75,2.87,-0.76,-1.28,35.85,-60.30,-43.50,23.09,03/22/2020,00:00:58.700,0,0,0,0,0,0,0,9999,9.856,
01/01/2000,00:01:00.04,63.96,-12.21,-974.61,3.08,1.12,-1.68,35.10,-61.50,-43.05,23.09,03/22/2020,00:00:58.800,0,0,0,0,0,0,0,9999,9.858,
01/01/2000,00:01:00.14,76.17,-19.04,-938.48,3.75,-2.21,-0.25,34.35,-61.80,-41.55,23.24,03/22/2020,00:00:58.900,0,0,0,0,0,0,0,9999,9.860,
01/01/2000,00:01:00.24,81.05,-29.79,-968.75,0.27,3.48,-2.40,34.80,-60.30,-44.85,22.81,03/22/2020,00:00:59.000,0,0,0,0,0,0,0,9999,9.860,
01/01/2000,00:01:00.34,62.50,-7.81,-956.05,2.85,-0.01,-2.61,35.85,-59.85,-43.05,23.29,03/22/2020,00:00:59.100,0,0,0,0,0,0,0,9999,9.860,
01/01/2000,00:01:00.44,86.43,-13.67,-963.87,0.92,1.21,-2.04,34.50,-63.90,-41.10,23.09,03/22/2020,00:00:59.200,0,0,0,0,0,0,0,9999,9.861,
01/01/2000,00:01:00.54,65.43,-6.35,-982.42,0.89,-0.54,-1.92,36.15,-62.25,-43.50,23.29,03/22/2020,00:00:59.300,0,0,0,0,0,0,0,9999,9.861,
01/01/2000,00:01:00.64,67.87,-14.65,-933.11,1.71,-2.89,-0.27,33.75,-62.70,-41.10,23.33,03/22/2020,00:00:59.400,0,0,0,0,0,0,0,9999,9.861,
01/01/2000,00:01:00.74,79.59,-20.51,-972.17,1.31,0.83,-0.85,34.20,-63.15,-40.65,23.14,03/22/2020,00:00:59.500,0,0,0,0,0,0,0,9999,9.861,
01/01/2000,00:01:00.84,67.87,-16.11,-969.73,1.11,1.88,-0.05,34.05,-62.25,-40.95,23.14,03/22/2020,00:00:59.600,0,0,0,0,0,0,0,9999,9.862,
01/01/2000,00:01:00.93,69.34,-20.02,-968.75,2.64,0.36,-1.75,34.20,-60.90,-42.15,22.95,03/22/2020,00:00:59.700,0,0,0,0,0,0,0,9999,9.862,
01/01/2000,00:01:01.03,77.15,-26.86,-981.45,0.36,0.81,-2.33,36.15,-61.80,-43.50,23.33,03/22/2020,00:00:59.800,0,0,0,0,0,0,0,9999,9.862,
01/01/2000,00:01:01.13,75.68,-24.90,-963.38,1.96,1.56,-3.03,35.10,-61.05,-43.80,22.90,03/22/2020,00:00:59.900,0,0,0,0,0,0,0,9999,9.862,
01/01/2000,00:01:01.23,61.52,-18.07,-978.52,3.60,0.48,-0.47,34.05,-62.25,-42.0,23.14,03/22/2020,00:01:00.000,0,0,0,0,0,0,0,9999,9.863,
01/01/2000,00:01:01.33,75.68,-14.65,-961.91,0.11,1.16,-0.81,33.60,-61.50,-40.95,23.29,03/22/2020,00:01:00.100,0,0,0,0,0,0,0,9999,9.863,
01/01/2000,00:01:01.43,70.31,-20.02,-962.40,1.04,1.39,-2.05,34.50,-61.65,-43.95,23.24,03/22/2020,00:01:00.200,0,0,0,0,0,0,0,9999,9.863,
01/01/2000,00:01:01.53,74.71,-14.16,-975.59,4.52,1.02,1.05,33.75,-62.40,-41.10,23.24,03/22/2020,00:01:00.300,0,0,0,0,0,0,0,9999,9.863,
01/01/2000,00:01:01.63,64.45,-12.70,-954.59,2.19,-1.22,-0.17,35.85,-60.30,-44.10,23.09,03/22/2020,00:01:00.400,0,0,0,0,0,0,0,9999,9.863,
01/01/2000,00:01:01.73,63.48,-28.81,-972.17,1.71,-0.54,1.64,33.45,-62.40,-42.45,22.95,03/22/2020,00:01:00.500,0,0,0,0,0,0,0,9999,9.864,
01/01/2000,00:01:01.83,63.48,-18.07,-960.94,2.41,-0.90,-0.01,33.60,-62.55,-40.50,23.29,03/22/2020,00:01:00.600,0,0,0,0,0,0,0,9999,9.864,
01/01/2000,00:01:01.93,73.73,-20.02,-971.19,3.10,-0.20,-0.75,33.75,-63.90,-39.60,23.29,03/22/2020,00:01:00.700,0,0,0,0,0,0,0,9999,9.864,
01/01/2000,00:01:02.03,83.98,-25.39,-975.59,3.54,0.49,2.60,35.25,-61.65,-43.20,23.29,03/22/2020,00:01:00.800,0,0,0,0,0,0,0,9999,9.864,
01/01/2000,00:01:02.13,64.45,-24.90,-955.08,3.91,-0.45,-0.50,34.80,-59.55,-41.55,23.14,03/22/2020,00:01:00.900,0,0,0,0,0,0,0,9999,9.861,
01/01/2000,00:01:02.23,66.89,-26.86,-972.66,1.69,0.56,-1.37,34.35,-62.25,-44.10,23.14,03/22/2020,00:01:01.000,0,0,0,0,0,0,0,9999,9.865,
01/01/2000,00:01:02.33,67.87,-17.09,-960.45,1.68,-0.47,-2.02,33.0,-61.95,-41.40,23.33,03/22/2020,00:01:01.100,0,0,0,0,0,0,0,9999,9.865,
01/01/2000,00:01:02.43,83.98,-25.88,-957.03,-0.35,1.95,-0.50,34.05,-61.80,-41.55,23.09,03/22/2020,00:01:01.200,0,0,0,0,0,0,0,9999,9.865,
01/01/2000,00:01:02.53,69.82,-31.74,-960.94,3.96,0.37,0.03,35.55,-61.05,-42.30,23.05,03/22/2020,00:01:01.300,0,0,0,0,0,0,0,9999,9.866,
01/01/2000,00:01:02.63,68.85,-20.51,-968.75,1.81,2.22,-1.09,35.55,-61.80,-42.75,23.09,03/22/2020,00:01:01.400,0,0,0,0,0,0,0,9999,9.866,
01/01/2000,00:01:02.73,68.36,-17.58,-962.89,0.50,0.04,-0.47,34.05,-63.0,-41.25,23.24,03/22/2020,00:01:01.500,0,0,0,0,0,0,0,9999,9.866,
01/01/2000,00:01:02.83,83.98,-11.72,-966.80,0.10,-0.71,0.39,35.70,-59.70,-42.90,23.14,03/22/2020,00:01:01.600,0,0,0,0,0,0,0,9999,9.866,
01/01/2000,00:01:02.93,64.94,-28.81,-960.94,1.53,-0.08,-2.55,35.25,-62.40,-42.90,22.95,03/22/2020,00:01:01.700,0,0,0,0,0,0,0,9999,9.866,
01/01/2000,00:01:03.03,83.98,-10.74,-974.12,3.29,0.25,-0.34,31.95,-61.65,-41.10,23.14,03/22/2020,00:01:01.800,0,0,0,0,0,0,0,9999,9.868,
01/01/2000,00:01:03.13,68.85,-8.79,-969.24,2.26,-1.18,-0.98,33.0,-61.65,-41.40,23.29,03/22/2020,00:01:01.900,0,0,0,0,0,0,0,9999,9.864,
01/01/2000,00:01:03.23,57.62,-15.14,-960.94,2.29,0.60,0.32,36.45,-59.70,-44.40,23.33,03/22/2020,00:01:02.000,0,0,0,0,0,0,0,9999,9.867,
01/01/2000,00:01:03.33,64.94,-20.02,-966.31,1.82,2.76,-3.34,35.55,-60.60,-42.30,23.29,03/22/2020,00:01:02.100,0,0,0,0,0,0,0,9999,9.867,
01/01/2000,00:01:03.43,75.20,-10.25,-973.63,1.21,-0.60,-1.02,34.50,-62.70,-40.35,23.43,03/22/2020,00:01:02.200,0,0,0,0,0,0,0,9999,9.868,
01/01/2000,00:01:03.53,69.34,-19.53,-958.50,1.61,-0.61,1.12,35.55,-61.05,-43.50,23.33,03/22/2020,00:01:02.300,0,0,0,0,0,0,0,9999,9.868,
01/01/2000,00:01:03.63,67.38,-26.37,-967.29,0.56,0.76,0.19,32.40,-61.20,-39.90,23.43,03/22/2020,00:01:02.400,0,0,0,0,0,0,0,9999,9.850,
01/01/2000,00:01:03.83,63.48,-10.25,-965.33,0.53,-0.40,-0.76,35.10,-60.60,-43.80,22.90,03/22/2020,00:01:02.600,0,0,0,0,0,0,0,9999,9.849,
01/01/2000,00:01:03.93,71.29,-16.60,-957.52,1.89,2.07,1.05,35.25,-60.90,-43.65,23.14,03/22/2020,00:01:02.700,0,0,0,0,0,0,0,9999,9.852,
01/01/2000,00:01:04.03,89.36,-16.60,-963.38,2.58,0.11,-3.31,35.55,-60.30,-42.75,23.09,03/22/2020,00:01:02.800,0,0,0,0,0,0,0,9999,9.852,
01/01/2000,00:01:04.13,71.78,-21.97,-967.29,1.74,-1.39,2.37,33.30,-61.05,-42.75,23.29,03/22/2020,00:01:02.900,0,0,0,0,0,0,0,9999,9.853,
01/01/2000,00:01:04.23,60.06,-7.81,-948.73,1.13,1.44,-1.15,33.75,-62.70,-41.85,23.29,03/22/2020,00:01:03.000,0,0,0,0,0,0,0,9999,9.853,
01/01/2000,00:01:04.33,57.62,-8.30,-971.68,3.27,1.17,-2.91,32.40,-61.95,-41.40,23.33,03/22/2020,00:01:03.100,0,0,0,0,0,0,0,9999,9.853,
01/01/2000,00:01:04.43,69.34,-0.98,-954.10,3.03,1.66,-2.69,34.50,-60.45,-43.95,23.24,03/22/2020,00:01:03.200,0,0,0,0,0,0,0,9999,9.853,
01/01/2000,00:01:04.53,72.27,-11.23,-966.31,1.96,-0.69,-1.24,35.85,-61.05,-42.75,23.14,03/22/2020,00:01:03.300,0,0,0,0,0,0,0,9999,9.852,
01/01/2000,00:01:04.63,63.96,-19.04,-956.05,0.56,0.21,-2.17,32.55,-62.25,-41.55,23.33,03/22/2020,00:01:03.400,0,0,0,0,0,0,0,9999,9.854,
01/01/2000,00:01:04.73,88.38,-15.63,-963.38,-1.18,-0.05,-3.27,35.25,-61.20,-43.20,23.33,03/22/2020,00:01:03.500,0,0,0,0,0,0,0,9999,9.856,
01/01/2000,00:01:04.83,83.01,-16.11,-955.08,1.44,2.09,-2.47,34.95,-62.40,-42.15,22.95,03/22/2020,00:01:03.600,0,0,0,0,0,0,0,9999,9.851,
01/01/2000,00:01:04.93,77.15,-34.67,-967.77,3.62,2.38,-1.89,35.25,-60.45,-42.90,23.33,03/22/2020,00:01:03.700,0,0,0,0,0,0,0,9999,9.855,
01/01/2000,00:01:05.03,66.41,-15.14,-1000.49,2.86,0.63,-2.89,32.70,-61.95,-41.10,23.33,03/22/2020,00:01:03.800,0,0,0,0,0,0,0,9999,9.855,
01/01/2000,00:01:05.13,72.75,-18.07,-959.96,3.11,-2.69,-1.56,34.35,-61.50,-43.05,23.29,03/22/2020,00:01:03.900,0,0,0,0,0,0,0,9999,9.855,
01/01/2000,00:01:05.23,66.89,-20.51,-970.21,1.22,-1.73,-0.79,34.95,-60.90,-43.65,23.29,03/22/2020,00:01:04.000,0,0,0,0,0,0,0,9999,9.855,
01/01/2000,00:01:05.33,83.01,-36.62,-993.65,0.81,0.44,-1.61,35.25,-60.90,-43.20,23.29,03/22/2020,00:01:04.100,0,0,0,0,0,0,0,9999,9.856,
01/01/2000,00:01:05.43,80.57,-17.09,-947.27,1.11,-0.21,-1.96,34.05,-62.25,-40.95,23.09,03/22/2020,00:01:04.200,0,0,0,0,0,0,0,9999,9.856,
01/01/2000,00:01:05.53,80.08,-31.25,-973.14,0.62,1.66,-2.60,33.60,-62.25,-40.20,23.09,03/22/2020,00:01:04.300,0,0,0,0,0,0,0,9999,9.856,
01/01/2000,00:01:05.63,73.73,-20.51,-965.33,1.54,-2.04,-1.08,36.0,-61.95,-42.45,22.95,03/22/2020,00:01:04.400,0,0,0,0,0,0,0,9999,9.856,
01/01/2000,00:01:05.73,62.99,-11.72,-953.13,1.71,-2.08,1.49,33.60,-62.25,-41.55,23.09,03/22/2020,00:01:04.500,0,0,0,0,0,0,0,9999,9.856,
01/01/2000,00:01:05.83,74.22,-26.37,-995.12,0.79,-3.21,-1.01,35.25,-60.90,-43.95,23.29,03/22/2020,00:01:04.600,0,0,0,0,0,0,0,9999,9.857,
01/01/2000,00:01:05.93,82.03,-13.18,-948.24,3.87,0.36,-0.75,34.05,-59.10,-43.50,23.33,03/22/2020,00:01:04.700,0,0,0,0,0,0,0,9999,9.857,
01/01/2000,00:01:06.03,76.66,-15.14,-978.03,1.96,0.31,-0.75,36.75,-60.45,-42.45,23.48,03/22/2020,00:01:04.800,0,0,0,0,0,0,0,9999,9.859,
01/01/2000,00:01:06.13,61.52,-23.93,-962.89,3.40,-0.79,-1.78,32.70,-61.95,-41.10,23.09,03/22/2020,00:01:04.900,0,0,0,0,0,0,0,9999,9.854,
01/01/2000,00:01:06.23,62.01,-19.53,-946.78,3.76,-0.32,1.05,34.95,-60.90,-43.95,23.57,03/22/2020,00:01:05.000,0,0,0,0,0,0,0,9999,9.858,
01/01/2000,00:01:06.33,73.24,-8.30,-961.43,3.92,-2.19,-1.40,36.0,-60.45,-44.70,23.33,03/22/2020,00:01:05.100,0,0,0,0,0,0,0,9999,9.858,
01/01/2000,00:01:06.43,67.38,-14.16,-953.61,2.09,0.11,-2.18,35.85,-62.25,-43.50,23.43,03/22/2020,00:01:05.200,0,0,0,0,0,0,0,9999,9.858,
01/01/2000,00:01:06.53,71.78,-8.30,-956.54,-0.29,1.89,-1.60,32.70,-61.65,-41.10,23.29,03/22/2020,00:01:05.300,0,0,0,0,0,0,0,9999,9.858,
01/01/2000,00:01:06.63,75.68,-32.23,-981.45,2.89,2.40,-1.76,33.0,-61.95,-41.10,23.43,03/22/2020,00:01:05.400,0,0,0,0,0,0,0,9999,9.858,
01/01/2000,00:01:06.73,78.13,-23.44,-938.96,3.17,0.25,-3.06,33.30,-62.25,-41.25,23.29,03/22/2020,00:01:05.500,0,0,0,0,0,0,0,9999,9.859,
01/01/2000,00:01:06.83,71.78,-10.25,-965.33,1.14,1.63,-1.71,34.80,-61.80,-42.75,23.14,03/22/2020,00:01:05.600,0,0,0,0,0,0,0,9999,9.859,
01/01/2000,00:01:06.93,70.31,-24.41,-951.66,2.44,0.63,-2.32,34.20,-61.95,-41.40,23.33,03/22/2020,00:01:05.700,0,0,0,0,0,0,0,9999,9.861,
01/01/2000,00:01:07.03,74.22,-21.00,-978.03,3.20,2.03,-2.30,34.50,-60.90,-43.20,23.24,03/22/2020,00:01:05.800,0,0,0,0,0,0,0,9999,9.861,
01/01/2000,00:01:07.13,69.34,-22.46,-987.30,0.79,1.28,-1.39,33.45,-62.40,-43.95,23.33,03/22/2020,00:01:05.900,0,0,0,0,0,0,0,9999,9.857,
01/01/2000,00:01:07.24,71.78,-5.86,-945.80,-0.79,-0.44,-0.90,36.45,-60.90,-43.65,23.43,03/22/2020,00:01:06.000,0,0,0,0,0,0,0,9999,9.858,
01/01/2000,00:01:07.34,61.04,-14.65,-985.84,2.29,-1.05,-0.53,32.70,-63.15,-42.15,23.33,03/22/2020,00:01:06.100,0,0,0,0,0,0,0,9999,9.860,
01/01/2000,00:01:07.44,64.94,-24.41,-969.73,2.40,-0.62,-0.63,35.70,-59.70,-43.20,23.29,03/22/2020,00:01:06.200,0,0,0,0,0,0,0,9999,9.860,
01/01/2000,00:01:07.54,79.10,-17.09,-958.98,2.13,-1.69,0.39,34.80,-60.60,-43.50,23.29,03/22/2020,00:01:06.300,0,0,0,0,0,0,0,9999,9.860,
01/01/2000,00:01:07.64,77.15,-21.00,-975.10,2.57,1.88,-3.63,34.35,-61.50,-41.25,23.43,03/22/2020,00:01:06.400,0,0,0,0,0,0,0,9999,9.861,
01/01/2000,00:01:07.74,68.85,-16.60,-937.99,1.08,0.44,-4.21,35.25,-61.05,-42.75,23.33,03/22/2020,00:01:06.500,0,0,0,0,0,0,0,9999,9.861,
01/01/2000,00:01:07.84,78.13,-24.41,-981.45,1.80,-0.18,0.0,33.45,-63.15,-41.85,23.43,03/22/2020,00:01:06.600,0,0,0,0,0,0,0,9999,9.861,
01/01/2000,00:01:07.94,80.08,-22.46,-983.40,1.53,3.20,-0.98,34.35,-61.50,-42.30,23.24,03/22/2020,00:01:06.700,0,0,0,0,0,0,0,9999,9.861,
01/01/2000,00:01:08.04,67.38,-19.04,-963.38,-1.50,-0.14,-5.98,33.60,-62.55,-41.25,23.14,03/22/2020,00:01:06.800,0,0,0,0,0,0,0,9999,9.862,
01/01/2000,00:01:08.13,67.38,-14.16,-979.49,1.13,0.37,-1.15,34.50,-60.45,-42.15,23.33,03/22/2020,00:01:06.900,0,0,0,0,0,0,0,9999,9.862,
01/01/2000,00:01:08.23,71.78,-22.46,-971.68,0.46,0.31,-1.35,35.70,-60.90,-43.95,23.29,03/22/2020,00:01:07.000,0,0,0,0,0,0,0,9999,9.862,
01/01/2000,00:01:08.33,75.68,-30.76,-970.21,1.64,-1.02,-1.87,35.55,-61.05,-42.75,23.57,03/22/2020,00:01:07.100,0,0,0,0,0,0,0,9999,9.862,
01/01/2000,00:01:08.43,74.22,-21.97,-953.61,0.73,2.79,-0.27,33.60,-62.55,-41.55,23.57,03/22/2020,00:01:07.200,0,0,0,0,0,0,0,9999,9.862,
01/01/2000,00:01:08.53,74.22,-18.07,-962.40,3.77,1.15,-0.37,34.05,-62.55,-41.55,23.48,03/22/2020,00:01:07.300,0,0,0,0,0,0,0,9999,9.863,
01/01/2000,00:01:08.63,71.78,-24.90,-971.19,2.72,-0.50,-1.19,35.55,-61.05,-43.80,23.43,03/22/2020,00:01:07.400,0,0,0,0,0,0,0,9999,9.863,
01/01/2000,00:01:08.73,74.22,-20.02,-953.13,1.55,0.98,-1.28,34.35,-60.60,-41.55,23.43,03/22/2020,00:01:07.500,0,0,0,0,0,0,0,9999,9.863,
01/01/2000,00:01:08.83,77.15,-24.41,-963.38,0.60,1.96,-3.14,35.25,-61.20,-43.20,23.33,03/22/2020,00:01:07.600,0,0,0,0,0,0,0,9999,9.863,
01/01/2000,00:01:08.93,72.75,-18.07,-972.17,-0.13,2.25,-1.74,34.50,-60.90,-42.90,23.43,03/22/2020,00:01:07.700,0,0,0,0,0,0,0,9999,9.863,
01/01/2000,00:01:09.03,69.34,-22.46,-958.98,3.02,-0.10,-1.13,33.30,-62.25,-41.55,23.48,03/22/2020,00:01:07.800,0,0,0,0,0,0,0,9999,9.864,
01/01/2000,00:01:09.13,82.52,-19.04,-967.29,2.34,-0.56,-2.44,33.60,-62.55,-40.50,23.33,03/22/2020,00:01:07.900,0,0,0,0,0,0,0,9999,9.861,
01/01/2000,00:01:09.23,62.01,-12.70,-970.21,3.37,3.34,-0.76,35.10,-61.05,-43.80,23.29,03/22/2020,00:01:08.000,0,0,0,0,0,0,0,9999,9.864,
01/01/2000,00:01:09.33,74.22,-3.42,-926.76,0.79,1.43,-5.63,35.85,-59.85,-42.75,23.43,03/22/2020,00:01:08.100,0,0,0,0,0,0,0,9999,9.864,
01/01/2000,00:01:09.43,52.73,-27.34,-961.43,-2.85,0.62,-3.41,34.35,-61.80,-43.05,23.43,03/22/2020,00:01:08.200,0,0,0,0,0,0,0,9999,9.864,
01/01/2000,00:01:09.53,61.04,-75.68,-1001.46,-3.81,0.65,-2.43,34.35,-61.80,-41.25,23.33,03/22/2020,00:01:08.300,0,0,0,0,0,0,0,9999,9.865,
01/01/2000,00:01:09.63,59.57,-47.85,-966.31,2.03,0.92,0.11,33.45,-62.40,-39.30,23.05,03/22/2020,00:01:08.400,0,0,0,0,0,0,0,9999,9.865,
01/01/2000,00:01:09.73,74.22,-38.09,-954.10,3.66,-1.05,-1.91,33.75,-61.95,-40.65,23.57,03/22/2020,00:01:08.500,0,0,0,0,0,0,0,9999,9.865,
01/01/2000,00:01:09.83,48.34,-27.83,-966.80,-0.25,-0.40,-1.46,33.30,-63.0,-41.25,23.48,03/22/2020,00:01:08.600,0,0,0,0,0,0,0,9999,9.865,
01/01/2000,00:01:09.93,83.50,-26.86,-968.75,2.40,0.98,-2.56,34.80,-59.55,-43.05,23.57,03/22/2020,00:01:08.700,0,0,0,0,0,0,0,9999,9.865,
01/01/2000,00:01:10.03,89.84,-17.09,-941.89,2.21,-2.05,-0.35,34.05,-61.50,-43.05,23.48,03/22/2020,00:01:08.800,0,0,0,0,0,0,0,9999,9.866,
01/01/2000,00:01:10.13,69.82,-21.00,-959.96,5.73,-0.89,-3.75,35.25,-63.60,-42.90,23.43,03/22/2020,00:01:08.900,0,0,0,0,0,0,0,9999,9.866,
01/01/2000,00:01:10.23,83.98,-31.74,-960.45,1.16,-0.70,-3.40,31.95,-63.60,-40.65,23.33,03/22/2020,00:01:09.000,0,0,0,0,0,0,0,9999,9.866,
01/01/2000,00:01:10.33,70.80,-28.81,-972.17,1.18,0.93,-0.31,32.10,-61.50,-40.95,23.43,03/22/2020,00:01:09.100,0,0,0,0,0,0,0,9999,9.866,
01/01/2000,00:01:10.43,79.59,-26.86,-959.96,1.82,1.05,0.05,36.0,-60.90,-43.20,23.29,03/22/2020,00:01:09.200,0,0,0,0,0,0,0,9999,9.868,
01/01/2000,00:01:10.53,67.87,-17.09,-952.64,3.66,1.03,-1.47,35.10,-61.05,-43.80,23.48,03/22/2020,00:01:09.300,0,0,0,0,0,0,0,9999,9.868,
01/01/2000,00:01:10.63,71.78,-8.30,-973.63,1.74,0.17,0.76,33.0,-62.70,-40.65,23.57,03/22/2020,00:01:09.400,0,0,0,0,0,0,0,9999,9.868,
01/01/2000,00:01:10.73,58.59,-16.60,-953.13,0.98,0.69,-0.27,34.95,-60.90,-43.65,23.09,03/22/2020,00:01:09.500,0,0,0,0,0,0,0,9999,9.864,
01/01/2000,00:01:10.84,94.24,-3.91,-948.73,3.96,0.02,0.90,32.55,-63.75,-39.0,23.43,03/22/2020,00:01:09.600,0,0,0,0,0,0,0,9999,9.867,
01/01/2000,00:01:10.94,66.41,-29.30,-956.54,3.11,-2.25,1.56,35.25,-61.20,-42.45,23.43,03/22/2020,00:01:09.700,0,0,0,0,0,0,0,9999,9.867,
01/01/2000,00:01:11.04,74.71,-19.53,-968.26,0.63,2.33,-1.55,33.60,-63.30,-41.25,23.33,03/22/2020,00:01:09.800,0,0,0,0,0,0,0,9999,9.868,
01/01/2000,00:01:11.14,68.85,-8.30,-961.43,1.87,-0.97,-2.77,34.80,-62.25,-43.50,23.48,03/22/2020,00:01:09.900,0,0,0,0,0,0,0,9999,9.868,
01/01/2000,00:01:11.24,75.68,-18.07,-936.52,1.75,1.28,-1.40,33.75,-61.65,-43.20,23.57,03/22/2020,00:01:10.000,0,0,0,0,0,0,0,9999,9.868,
01/01/2000,00:01:11.34,65.92,-15.63,-951.17,2.27,0.82,-1.31,34.35,-61.80,-41.55,23.57,03/22/2020,00:01:10.100,0,0,0,0,0,0,0,9999,9.868,
01/01/2000,00:01:11.44,80.57,-21.97,-957.52,-0.19,2.54,0.14,33.45,-61.65,-41.10,23.33,03/22/2020,00:01:10.200,0,0,0,0,0,0,0,9999,9.868,
01/01/2000,00:01:11.53,67.38,-21.00,-985.84,3.12,-1.92,-0.76,33.75,-62.40,-42.15,23.57,03/22/2020,00:01:10.300,0,0,0,0,0,0,0,9999,9.869,
01/01/2000,00:01:11.63,69.82,-21.97,-962.89,2.70,-0.88,-0.85,34.80,-61.50,-43.50,23.43,03/22/2020,00:01:10.400,0,0,0,0,0,0,0,9999,9.869,
01/01/2000,00:01:11.73,77.64,-20.02,-955.57,0.08,4.12,-0.45,32.55,-61.80,-39.75,23.43,03/22/2020,00:01:10.500,0,0,0,0,0,0,0,9999,9.869,
01/01/2000,00:01:11.83,65.43,-42.48,-974.12,1.66,0.69,-1.85,35.10,-60.60,-44.10,23.62,03/22/2020,00:01:10.600,0,0,0,0,0,0,0,9999,9.869,
01/01/2000,00:01:11.93,69.34,-29.30,-1006.35,2.40,2.68,-2.42,35.70,-61.65,-43.95,23.43,03/22/2020,00:01:10.700,0,0,0,0,0,0,0,9999,9.869,
01/01/2000,00:01:12.03,76.17,-16.60,-926.76,1.13,-1.19,-3.53,33.60,-61.50,-42.0,23.67,03/22/2020,00:01:10.800,0,0,0,0,0,0,0,9999,9.870,
01/01/2000,00:01:12.13,68.36,-16.60,-950.68,2.76,-1.44,-0.81,32.55,-61.50,-40.20,23.57,03/22/2020,00:01:10.900,0,0,0,0,0,0,0,9999,9.870,
01/01/2000,00:01:12.23,72.27,-22.46,-957.03,2.79,2.02,-2.27,36.0,-61.65,-43.20,23.57,03/22/2020,00:01:11.000,0,0,0,0,0,0,0,9999,9.870,
01/01/2000,00:01:12.33,75.20,-14.16,-955.57,3.69,0.42,-1.15,34.80,-61.05,-43.50,23.76,03/22/2020,00:01:11.100,0,0,0,0,0,0,0,9999,9.870,
01/01/2000,00:01:12.43,78.61,-24.90,-957.03,2.60,-1.40,0.44,34.80,-61.80,-43.50,23.48,03/22/2020,00:01:11.200,0,0,0,0,0,0,0,9999,9.870,
01/01/2000,00:01:12.53,69.82,-9.28,-972.17,3.09,0.47,1.50,34.50,-61.65,-41.85,23.62,03/22/2020,00:01:11.300,0,0,0,0,0,0,0,9999,9.871,
01/01/2000,00:01:12.63,75.20,-14.16,-969.73,-0.15,-0.95,-2.77,33.45,-61.65,-42.15,23.57,03/22/2020,00:01:11.400,0,0,0,0,0,0,0,9999,9.871,
01/01/2000,00:01:12.73,74.22,-20.02,-983.89,3.11,3.26,-1.37,33.30,-62.25,-42.0,23.33,03/22/2020,00:01:11.500,0,0,0,0,0,0,0,9999,9.871,
01/01/2000,00:01:12.83,93.26,-17.09,-950.20,2.30,-0.42,0.0,33.30,-61.50,-41.55,23.48,03/22/2020,00:01:11.600,0,0,0,0,0,0,0,9999,9.872,
01/01/2000,00:01:12.93,64.45,-20.51,-968.75,-0.35,0.72,-1.44,35.55,-61.80,-43.50,23.57,03/22/2020,00:01:11.700,0,0,0,0,0,0,0,9999,9.873,
01/01/2000,00:01:13.03,60.55,-23.44,-950.20,2.07,0.30,0.54,36.15,-61.80,-42.75,23.57,03/22/2020,00:01:11.800,0,0,0,0,0,0,0,9999,9.869,
01/01/2000,00:01:13.14,74.22,-21.00,-970.70,0.94,-2.18,0.05,36.45,-60.45,-44.40,23.43,03/22/2020,00:01:11.900,0,0,0,0,0,0,0,9999,9.872,
01/01/2000,00:01:13.24,64.45,-16.11,-959.96,1.92,0.66,0.04,33.75,-61.20,-41.85,23.29,03/22/2020,00:01:12.000,0,0,0,0,0,0,0,9999,9.869,
01/01/2000,00:01:13.34,51.27,-21.97,-987.79,5.84,-1.34,2.40,35.55,-60.30,-44.10,23.48,03/22/2020,00:01:12.100,0,0,0,0,0,0,0,9999,9.855,
01/01/2000,00:01:13.53,71.78,-10.25,-967.29,2.20,1.98,-1.76,34.05,-61.50,-44.10,23.48,03/22/2020,00:01:12.300,0,0,0,0,0,0,0,9999,9.858,
01/01/2000,00:01:13.63,71.78,-14.65,-963.87,1.37,0.16,-2.26,34.80,-61.05,-44.10,23.57,03/22/2020,00:01:12.400,0,0,0,0,0,0,0,9999,9.858,
01/01/2000,00:01:13.73,75.20,-22.46,-969.73,1.09,0.80,-1.24,33.30,-61.80,-38.70,23.57,03/22/2020,00:01:12.500,0,0,0,0,0,0,0,9999,9.859,
01/01/2000,00:01:13.83,73.24,-4.39,-949.71,2.29,0.12,-0.55,34.20,-61.20,-39.90,23.57,03/22/2020,00:01:12.600,0,0,0,0,0,0,0,9999,9.859,
01/01/2000,00:01:13.93,59.57,-15.63,-960.94,-0.95,2.07,-0.96,34.95,-60.90,-42.45,23.57,03/22/2020,00:01:12.700,0,0,0,0,0,0,0,9999,9.860,
01/01/2000,00:01:14.03,82.03,-24.90,-971.68,1.76,-1.55,1.58,34.50,-60.90,-42.90,23.62,03/22/2020,00:01:12.800,0,0,0,0,0,0,0,9999,9.861,
01/01/2000,00:01:14.13,80.08,-18.07,-963.87,2.34,2.14,-2.86,33.0,-61.65,-42.15,23.57,03/22/2020,00:01:12.900,0,0,0,0,0,0,0,9999,9.857,
01/01/2000,00:01:14.24,76.17,-20.51,-968.26,4.19,-0.39,-0.58,34.50,-60.15,-44.40,23.29,03/22/2020,00:01:13.000,0,0,0,0,0,0,0,9999,9.858,
01/01/2000,00:01:14.34,56.15,-34.18,-956.54,3.05,0.63,-0.40,32.85,-62.25,-41.25,23.57,03/22/2020,00:01:13.100,0,0,0,0,0,0,0,9999,9.858,
01/01/2000,00:01:14.44,67.38,-21.48,-958.01,1.62,1.76,-0.15,33.30,-62.55,-42.75,23.57,03/22/2020,00:01:13.200,0,0,0,0,0,0,0,9999,9.860,
01/01/2000,00:01:14.54,63.48,-34.18,-979.49,0.06,1.44,-1.52,36.0,-61.20,-43.65,23.57,03/22/2020,00:01:13.300,0,0,0,0,0,0,0,9999,9.860,
01/01/2000,00:01:14.64,79.10,-14.16,-955.08,2.08,1.38,-2.66,34.95,-60.15,-43.65,23.67,03/22/2020,00:01:13.400,0,0,0,0,0,0,0,9999,9.860,
01/01/2000,00:01:14.74,74.22,-15.14,-967.77,3.13,1.23,-3.12,36.0,-59.25,-43.65,23.57,03/22/2020,00:01:13.500,0,0,0,0,0,0,0,9999,9.861,
01/01/2000,00:01:14.84,65.92,-27.83,-958.01,3.01,-0.18,1.18,32.55,-62.55,-42.0,23.57,03/22/2020,00:01:13.600,0,0,0,0,0,0,0,9999,9.861,
01/01/2000,00:01:14.94,74.22,-14.16,-962.40,0.95,1.60,0.86,34.35,-62.55,-40.20,23.43,03/22/2020,00:01:13.700,0,0,0,0,0,0,0,9999,9.861,
01/01/2000,00:01:15.03,85.45,-20.51,-969.24,4.10,-0.13,0.44,34.35,-60.60,-43.50,23.62,03/22/2020,00:01:13.800,0,0,0,0,0,0,0,9999,9.861,
01/01/2000,00:01:15.13,59.57,-20.51,-947.75,3.94,2.05,-3.09,34.80,-60.60,-44.55,23.33,03/22/2020,00:01:13.900,0,0,0,0,0,0,0,9999,9.861,
01/01/2000,00:01:15.23,90.33,-40.53,-958.01,2.34,1.22,0.05,31.80,-62.55,-40.95,23.48,03/22/2020,00:01:14.000,0,0,0,0,0,0,0,9999,9.861,
01/01/2000,00:01:15.33,105.47,-38.57,-966.80,2.73,0.83,-0.08,35.55,-61.05,-43.50,23.67,03/22/2020,00:01:14.100,0,0,0,0,0,0,0,9999,9.862,
01/01/2000,00:01:15.43,96.68,-22.95,-977.54,3.58,0.70,-2.03,32.40,-61.20,-40.35,23.62,03/22/2020,00:01:14.200,0,0,0,0,0,0,0,9999,9.862,
01/01/2000,00:01:15.53,97.66,-17.09,-971.68,2.21,3.62,-0.24,33.45,-61.95,-40.35,23.57,03/22/2020,00:01:14.300,0,0,0,0,0,0,0,9999,9.862,
01/01/2000,00:01:15.63,83.50,-13.18,-964.36,2.03,4.94,-0.77,33.60,-61.50,-42.0,23.67,03/22/2020,00:01:14.400,0,0,0,0,0,0,0,9999,9.862,
01/01/2000,00:01:15.73,71.78,-10.25,-960.94,0.37,0.75,-1.16,33.75,-61.95,-43.65,23.81,03/22/2020,00:01:14.500,0,0,0,0,0,0,0,9999,9.862,
01/01/2000,00:01:15.83,62.99,125.49,-991.21,-4.37,-0.49,-2.69,34.50,-60.45,-42.90,23.57,03/22/2020,00:01:14.600,0,0,0,0,0,0,0,9999,9.863,
01/01/2000,00:01:15.93,116.21,-15.63,-949.22,0.97,-0.94,-2.85,32.70,-61.20,-42.45,23.76,03/22/2020,00:01:14.700,0,0,0,0,0,0,0,9999,9.863,
01/01/2000,00:01:16.03,45.90,-11.72,-975.59,4.21,-5.67,-1.93,32.10,-61.05,-40.95,23.57,03/22/2020,00:01:14.800,0,0,0,0,0,0,0,9999,9.863,
01/01/2000,00:01:16.13,63.48,14.65,-976.07,0.81,-3.66,-2.18,32.40,-61.20,-41.85,23.62,03/22/2020,00:01:14.900,0,0,0,0,0,0,0,9999,9.861,
01/01/2000,00:01:16.23,35.16,6.35,-1008.30,1.79,2.78,-3.17,36.15,-60.60,-42.75,23.67,03/22/2020,00:01:15.000,0,0,0,0,0,0,0,9999,9.863,
01/01/2000,00:01:16.33,60.55,27.83,-942.38,3.04,-6.42,-2.55,31.65,-62.40,-41.85,23.76,03/22/2020,00:01:15.100,0,0,0,0,0,0,0,9999,9.864,
01/01/2000,00:01:16.43,9.28,-48.83,-973.14,1.83,-2.47,-3.05,33.60,-61.05,-42.75,23.57,03/22/2020,00:01:15.200,0,0,0,0,0,0,0,9999,9.864,
01/01/2000,00:01:16.53,77.15,18.55,-1034.18,1.24,2.39,-3.26,33.60,-59.55,-43.05,23.76,03/22/2020,00:01:15.300,0,0,0,0,0,0,0,9999,9.864,
01/01/2000,00:01:16.63,97.17,-11.72,-951.66,-0.56,0.66,-5.22,31.80,-61.05,-42.0,23.67,03/22/2020,00:01:15.400,0,0,0,0,0,0,0,9999,9.864,
01/01/2000,00:01:16.73,96.68,-29.79,-980.47,4.84,-1.14,-0.85,32.85,-62.25,-42.75,23.48,03/22/2020,00:01:15.500,0,0,0,0,0,0,0,9999,9.864,
01/01/2000,00:01:16.83,101.56,-19.04,-958.01,-1.12,1.72,1.56,33.30,-60.60,-44.10,23.57,03/22/2020,00:01:15.600,0,0,0,0,0,0,0,9999,9.864,
01/01/2000,00:01:16.93,58.11,-3.42,-1012.70,2.79,3.36,-1.03,33.75,-60.90,-43.20,23.43,03/22/2020,00:01:15.700,0,0,0,0,0,0,0,9999,9.865,
01/01/2000,00:01:17.03,134.77,14.65,-936.04,2.14,-0.93,1.91,32.85,-61.50,-41.25,23.81,03/22/2020,00:01:15.800,0,0,0,0,0,0,0,9999,9.865,
01/01/2000,00:01:17.13,89.84,2.44,-967.29,3.63,-2.51,1.40,34.80,-59.55,-43.80,23.81,03/22/2020,00:01:15.900,0,0,0,0,0,0,0,9999,9.862,
01/01/2000,00:01:17.24,95.70,9.28,-961.91,5.43,1.87,0.15,33.0,-60.90,-44.40,23.57,03/22/2020,00:01:16.000,0,0,0,0,0,0,0,9999,9.864,
01/01/2000,00:01:17.34,57.13,-3.91,-974.12,6.0,3.07,-0.11,32.70,-60.15,-41.10,23.57,03/22/2020,00:01:16.100,0,0,0,0,0,0,0,9999,9.864,
01/01/2000,00:01:17.44,93.26,-5.37,-949.71,2.11,5.70,-3.82,30.30,-63.75,-40.20,23.76,03/22/2020,00:01:16.200,0,0,0,0,0,0,0,9999,9.864,
01/01/2000,00:01:17.54,81.05,-1.95,-1006.84,0.66,4.40,-3.89,34.05,-60.60,-44.10,23.86,03/22/2020,00:01:16.300,0,0,0,0,0,0,0,9999,9.866,
01/01/2000,00:01:17.64,135.25,16.11,-945.31,1.12,0.71,-1.69,33.0,-61.20,-43.65,23.57,03/22/2020,00:01:16.400,0,0,0,0,0,0,0,9999,9.866,
01/01/2000,00:01:17.74,141.11,-21.00,-961.43,0.99,-4.97,-1.08,33.75,-60.90,-43.95,23.62,03/22/2020,00:01:16.500,0,0,0,0,0,0,0,9999,9.866,
01/01/2000,00:01:17.84,116.70,-21.48,-930.18,5.66,-3.53,0.21,31.05,-62.55,-40.95,23.48,03/22/2020,00:01:16.600,0,0,0,0,0,0,0,9999,9.866,
01/01/2000,00:01:17.94,124.02,-9.28,-987.79,0.41,3.59,-3.14,32.70,-61.20,-41.85,23.86,03/22/2020,00:01:16.700,0,0,0,0,0,0,0,9999,9.866,
01/01/2000,00:01:18.04,115.23,-4.39,-954.59,2.41,-1.67,-2.21,33.0,-60.90,-44.40,23.62,03/22/2020,00:01:16.800,0,0,0,0,0,0,0,9999,9.867,
01/01/2000,00:01:18.14,108.40,0.0,-978.03,1.73,-0.55,-2.95,33.60,-59.85,-44.55,23.67,03/22/2020,00:01:16.900,0,0,0,0,0,0,0,9999,9.867,
01/01/2000,00:01:18.24,72.27,21.48,-943.85,3.36,-1.88,-0.74,33.75,-61.95,-42.90,23.76,03/22/2020,00:01:17.000,0,0,0,0,0,0,0,9999,9.867,
01/01/2000,00:01:18.34,51.27,-35.16,-961.91,6.47,-0.76,-1.35,33.0,-60.15,-43.20,23.76,03/22/2020,00:01:17.100,0,0,0,0,0,0,0,9999,9.867,
01/01/2000,00:01:18.43,21.48,-179.69,-999.51,2.33,-2.43,0.50,32.70,-61.20,-41.40,23.81,03/22/2020,00:01:17.200,0,0,0,0,0,0,0,9999,9.867,
01/01/2000,00:01:18.53,22.46,-22.95,-963.87,4.31,-4.71,-0.47,33.45,-60.90,-42.45,23.62,03/22/2020,00:01:17.300,0,0,0,0,0,0,0,9999,9.868,
01/01/2000,00:01:18.63,80.08,44.43,-878.42,4.31,-2.60,-3.89,33.60,-59.85,-43.50,23.57,03/22/2020,00:01:17.400,0,0,0,0,0,0,0,9999,9.868,
01/01/2000,00:01:18.73,41.50,-54.69,-1015.63,4.93,-3.89,-0.81,33.45,-61.65,-43.65,23.43,03/22/2020,00:01:17.500,0,0,0,0,0,0,0,9999,9.868,
01/01/2000,00:01:18.83,70.80,-3.42,-911.62,-1.28,6.13,0.59,33.75,-60.45,-44.40,23.81,03/22/2020,00:01:17.600,0,0,0,0,0,0,0,9999,9.868,
01/01/2000,00:01:18.93,97.66,-41.50,-993.16,-0.95,5.97,-2.30,32.10,-61.50,-40.50,23.76,03/22/2020,00:01:17.700,0,0,0,0,0,0,0,9999,9.868,
01/01/2000,00:01:19.03,106.93,-18.07,-980.96,1.20,1.47,-0.05,33.60,-61.80,-41.55,23.76,03/22/2020,00:01:17.800,0,0,0,0,0,0,0,9999,9.868,
01/01/2000,00:01:19.13,105.96,-3.42,-925.78,2.14,-0.92,-3.27,32.10,-62.25,-40.95,23.62,03/22/2020,00:01:17.900,0,0,0,0,0,0,0,9999,9.869,
01/01/2000,00:01:19.23,82.03,3.91,-982.91,6.97,-8.36,-2.15,33.30,-60.30,-44.85,23.67,03/22/2020,00:01:18.000,0,0,0,0,0,0,0,9999,9.869,
01/01/2000,00:01:19.33,108.40,35.64,-1009.77,-4.38,14.07,0.96,32.70,-60.45,-42.45,23.43,03/22/2020,00:01:18.100,0,0,0,0,0,0,0,9999,9.869,
01/01/2000,00:01:19.43,157.23,-19.53,-985.84,-2.18,-4.27,-2.21,34.05,-59.85,-43.80,23.67,03/22/2020,00:01:18.200,0,0,0,0,0,0,0,9999,9.869,
01/01/2000,00:01:19.53,125.49,-29.30,-964.84,5.20,-5.66,-0.86,34.35,-59.10,-44.10,23.62,03/22/2020,00:01:18.300,0,0,0,0,0,0,0,9999,9.869,
01/01/2000,00:01:19.63,135.25,-30.27,-917.48,-1.76,4.37,-2.11,31.20,-61.95,-41.40,23.76,03/22/2020,00:01:18.400,0,0,0,0,0,0,0,9999,9.869,
01/01/2000,00:01:19.73,96.68,-11.72,-978.03,4.80,1.32,-1.19,33.0,-61.95,-42.45,23.76,03/22/2020,00:01:18.500,0,0,0,0,0,0,0,9999,9.870,
01/01/2000,00:01:19.83,55.66,-22.95,-928.71,-2.63,5.49,-2.63,34.20,-60.90,-42.45,23.81,03/22/2020,00:01:18.600,0,0,0,0,0,0,0,9999,9.871,
01/01/2000,00:01:19.93,140.63,-26.86,-984.38,3.85,-1.05,-0.98,33.30,-60.30,-43.05,23.86,03/22/2020,00:01:18.700,0,0,0,0,0,0,0,9999,9.871,
01/01/2000,00:01:20.03,103.52,21.00,-976.56,-0.51,0.82,-2.97,32.70,-62.40,-41.10,23.57,03/22/2020,00:01:18.800,0,0,0,0,0,0,0,9999,9.868,
01/01/2000,00:01:20.14,122.56,6.84,-937.50,3.17,1.67,-1.83,33.60,-59.85,-43.50,23.76,03/22/2020,00:01:18.900,0,0,0,0,0,0,0,9999,9.870,
01/01/2000,00:01:20.24,104.00,-10.25,-921.88,-0.09,4.79,-4.08,31.95,-62.70,-41.10,23.86,03/22/2020,00:01:19.000,0,0,0,0,0,0,0,9999,9.870,
01/01/2000,00:01:20.34,127.44,-17.58,-970.21,3.03,0.12,1.50,33.75,-60.15,-43.20,23.81,03/22/2020,00:01:19.100,0,0,0,0,0,0,0,9999,9.871,
01/01/2000,00:01:20.44,107.91,-2.44,-963.38,3.89,-2.65,-0.11,32.10,-62.25,-42.30,23.67,03/22/2020,00:01:19.200,0,0,0,0,0,0,0,9999,9.871,
01/01/2000,00:01:20.53,107.91,3.91,-989.26,3.45,0.40,-3.10,35.10,-60.60,-43.50,23.62,03/22/2020,00:01:19.300,0,0,0,0,0,0,0,9999,9.871,
01/01/2000,00:01:20.63,82.03,-21.00,-981.93,2.72,-1.47,2.34,34.20,-58.95,-45.15,23.57,03/22/2020,00:01:19.400,0,0,0,0,0,0,0,9999,9.871,
01/01/2000,00:01:20.73,120.61,-10.25,-974.61,6.37,-6.81,-0.83,33.30,-61.05,-42.30,23.81,03/22/2020,00:01:19.500,0,0,0,0,0,0,0,9999,9.871,
01/01/2000,00:01:20.83,58.59,-4.88,-964.36,6.62,-2.07,-1.20,34.80,-61.80,-41.25,23.76,03/22/2020,00:01:19.600,0,0,0,0,0,0,0,9999,9.871,
01/01/2000,00:01:20.93,62.01,-5.86,-973.14,3.90,-1.44,0.27,34.50,-60.45,-42.15,23.76,03/22/2020,00:01:19.700,0,0,0,0,0,0,0,9999,9.872,
01/01/2000,00:01:21.03,72.27,-8.30,-964.36,1.20,-0.18,-2.75,34.35,-60.60,-44.10,23.81,03/22/2020,00:01:19.800,0,0,0,0,0,0,0,9999,9.872,
01/01/2000,00:01:21.13,76.66,-32.23,-979.00,2.50,0.69,1.23,35.85,-60.30,-43.50,23.96,03/22/2020,00:01:19.900,0,0,0,0,0,0,0,9999,9.872,
01/01/2000,00:01:21.23,71.29,-16.60,-955.08,2.12,-1.84,-0.56,32.10,-62.55,-40.50,23.62,03/22/2020,00:01:20.000,0,0,0,0,0,0,0,9999,9.872,
01/01/2000,00:01:21.33,83.98,-13.18,-955.08,1.47,-1.62,0.32,33.45,-60.90,-40.65,23.96,03/22/2020,00:01:20.100,0,0,0,0,0,0,0,9999,9.872,
01/01/2000,00:01:21.43,65.43,-19.53,-966.31,0.03,-0.16,-1.41,34.95,-61.20,-40.35,24.00,03/22/2020,00:01:20.200,0,0,0,0,0,0,0,9999,9.872,
01/01/2000,00:01:21.53,66.89,-23.93,-955.57,1.67,0.66,-0.64,33.45,-61.20,-42.15,23.81,03/22/2020,00:01:20.300,0,0,0,0,0,0,0,9999,9.873,
01/01/2000,00:01:21.63,81.54,-29.79,-984.38,0.59,-1.66,-2.94,35.55,-60.60,-43.80,23.76,03/22/2020,00:01:20.400,0,0,0,0,0,0,0,9999,9.873,
01/01/2000,00:01:21.73,77.15,-13.18,-952.15,1.98,0.79,2.27,36.15,-60.30,-43.05,24.00,03/22/2020,00:01:20.500,0,0,0,0,0,0,0,9999,9.873,
01/01/2000,00:01:21.83,98.14,-19.53,-975.10,1.36,0.21,-1.28,35.25,-60.45,-44.40,23.81,03/22/2020,00:01:20.600,0,0,0,0,0,0,0,9999,9.874,
01/01/2000,00:01:21.93,105.96,-29.79,-934.57,0.48,0.60,-1.27,33.60,-61.80,-41.55,23.76,03/22/2020,00:01:20.700,0,0,0,0,0,0,0,9999,9.875,
01/01/2000,00:01:22.03,81.54,-25.88,-965.82,-5.68,9.58,-1.02,35.85,-61.50,-42.75,23.96,03/22/2020,00:01:20.800,0,0,0,0,0,0,0,9999,9.871,
01/01/2000,00:01:22.13,85.94,-48.83,-1023.93,-2.99,5.60,-0.50,35.85,-61.50,-42.30,23.57,03/22/2020,00:01:20.900,0,0,0,0,0,0,0,9999,9.874,
01/01/2000,00:01:22.23,46.39,-71.29,-951.17,-0.73,1.71,-1.19,35.85,-60.60,-43.05,23.57,03/22/2020,00:01:21.000,0,0,0,0,0,0,0,9999,9.874,
01/01/2000,00:01:22.33,46.88,-36.13,-971.68,1.95,-0.44,-0.20,34.05,-61.80,-40.95,23.96,03/22/2020,00:01:21.100,0,0,0,0,0,0,0,9999,9.874,
01/01/2000,00:01:22.43,50.29,-35.64,-957.03,1.27,0.98,0.48,34.20,-61.65,-43.95,23.96,03/22/2020,00:01:21.200,0,0,0,0,0,0,0,9999,9.874,
01/01/2000,00:01:22.53,75.68,-18.55,-944.82,1.79,1.98,-0.43,33.60,-62.25,-41.55,23.76,03/22/2020,00:01:21.300,0,0,0,0,0,0,0,9999,9.874,
01/01/2000,00:01:22.63,90.33,-1.46,-965.82,1.24,0.26,-2.71,32.85,-61.50,-41.55,23.81,03/22/2020,00:01:21.400,0,0,0,0,0,0,0,9999,9.874,
01/01/2000,00:01:22.73,100.59,-20.02,-957.03,1.92,2.40,2.30,36.0,-61.95,-44.70,23.57,03/22/2020,00:01:21.500,0,0,0,0,0,0,0,9999,9.875,
01/01/2000,00:01:22.83,138.18,-41.02,-898.44,5.13,-2.31,-0.13,35.70,-61.65,-42.45,24.00,03/22/2020,00:01:21.600,0,0,0,0,0,0,0,9999,9.876,
01/01/2000,00:01:22.93,82.03,-6.35,-958.50,2.99,1.16,-2.95,34.05,-60.60,-44.10,23.81,03/22/2020,00:01:21.700,0,0,0,0,0,0,0,9999,9.876,
01/01/2000,00:01:23.03,53.71,-12.21,-967.77,1.66,4.58,-1.91,33.30,-62.55,-42.0,23.86,03/22/2020,00:01:21.800,0,0,0,0,0,0,0,9999,9.876,
01/01/2000,00:01:23.13,51.27,0.98,-942.38,2.83,0.71,-3.16,34.20,-62.40,-41.40,23.62,03/22/2020,00:01:21.900,0,0,0,0,0,0,0,9999,9.873,
01/01/2000,00:01:23.23,83.98,-4.88,-936.04,2.0,1.52,-0.51,35.85,-61.80,-43.05,23.96,03/22/2020,00:01:22.000,0,0,0,0,0,0,0,9999,9.875,
01/01/2000,00:01:23.33,103.03,-0.98,-941.89,4.08,0.01,-0.21,33.75,-61.65,-42.90,23.81,03/22/2020,00:01:22.100,0,0,0,0,0,0,0,9999,9.875,
01/01/2000,00:01:23.43,67.87,-16.11,-960.94,3.97,2.79,0.31,34.95,-62.40,-41.85,23.76,03/22/2020,00:01:22.200,0,0,0,0,0,0,0,9999,9.876,
01/01/2000,00:01:23.53,-1.95,-125.98,-1027.34,-0.23,6.34,-2.63,34.95,-58.95,-42.15,24.00,03/22/2020,00:01:22.300,0,0,0,0,0,0,0,9999,9.876,
01/01/2000,00:01:23.63,42.97,-19.04,-993.16,3.87,63.34,-20.02,34.20,-60.15,-43.65,23.86,03/22/2020,00:01:22.400,0,0,0,0,0,0,0,9999,9.876,
01/01/2000,00:01:23.73,193.36,-114.26,-896.48,4.45,39.21,-35.96,26.40,-62.70,-41.85,23.62,03/22/2020,00:01:22.500,0,0,0,0,0,0,0,9999,9.876,
01/01/2000,00:01:23.83,188.96,-29.79,-1054.20,5.11,4.37,-20.76,27.75,-63.30,-41.25,23.67,03/22/2020,00:01:22.600,0,0,0,0,0,0,0,9999,9.876,
01/01/2000,00:01:23.93,251.46,24.90,-904.30,2.71,-15.13,-3.88,27.90,-63.15,-43.65,23.57,03/22/2020,00:01:22.700,0,0,0,0,0,0,0,9999,9.876,
01/01/2000,00:01:24.03,228.52,-58.11,-918.46,10.21,24.44,-31.0,25.80,-62.25,-43.05,23.96,03/22/2020,00:01:22.800,0,0,0,0,0,0,0,9999,9.877,
01/01/2000,00:01:24.13,229.00,-82.03,-824.22,10.50,0.37,-22.09,21.75,-65.70,-39.75,23.86,03/22/2020,00:01:22.900,0,0,0,0,0,0,0,9999,9.874,
01/01/2000,00:01:24.24,232.91,81.54,-959.47,3.56,-42.44,-14.43,24.60,-64.35,-42.90,23.96,03/22/2020,00:01:23.000,0,0,0,0,0,0,0,9999,9.876,
01/01/2000,00:01:24.34,241.70,30.27,-951.17,10.69,-7.79,-49.42,23.85,-65.40,-40.35,23.96,03/22/2020,00:01:23.100,0,0,0,0,0,0,0,9999,9.876,
01/01/2000,00:01:24.44,166.99,-23.93,-898.44,12.51,-5.15,-58.46,24.0,-63.0,-42.75,23.86,03/22/2020,00:01:23.200,0,0,0,0,0,0,0,9999,9.876,
01/01/2000,00:01:24.54,215.33,-12.70,-962.89,-7.57,2.76,-11.50,22.65,-63.90,-41.85,24.00,03/22/2020,00:01:23.300,0,0,0,0,0,0,0,9999,9.877,
01/01/2000,00:01:24.64,241.21,-21.97,-991.70,-3.58,2.99,2.05,21.0,-62.55,-40.50,23.86,03/22/2020,00:01:23.400,0,0,0,0,0,0,0,9999,9.877,
01/01/2000,00:01:24.74,256.35,-90.82,-1018.07,3.42,-0.46,-34.48,20.70,-63.0,-40.95,24.00,03/22/2020,00:01:23.500,0,0,0,0,0,0,0,9999,9.878,
01/01/2000,00:01:24.84,174.32,-204.59,-916.50,17.0,-1.23,-49.98,18.0,-62.25,-37.95,23.76,03/22/2020,00:01:23.600,0,0,0,0,0,0,0,9999,9.878,
01/01/2000,00:01:24.94,135.25,-157.71,-805.66,16.73,-15.44,-25.05,17.40,-60.60,-39.75,23.76,03/22/2020,00:01:23.700,0,0,0,0,0,0,0,9999,9.878,
01/01/2000,00:01:25.04,127.44,-80.08,-799.32,8.91,-13.90,-34.76,21.60,-60.15,-41.10,23.81,03/22/2020,00:01:23.800,0,0,0,0,0,0,0,9999,9.878,
01/01/2000,00:01:25.14,121.58,-72.27,-1082.03,27.84,-25.60,-35.83,19.50,-61.80,-40.95,24.15,03/22/2020,00:01:23.900,0,0,0,0,0,0,0,9999,9.878,
01/01/2000,00:01:25.24,107.91,15.63,-893.07,25.79,-5.79,-7.21,18.0,-63.75,-39.45,23.86,03/22/2020,00:01:24.000,0,0,0,0,0,0,0,9999,9.878,
01/01/2000,00:01:25.33,109.38,24.41,-942.87,-0.85,23.07,27.85,21.75,-62.55,-43.05,23.86,03/22/2020,00:01:24.100,0,0,0,0,0,0,0,9999,9.878,
01/01/2000,00:01:25.43,51.76,109.86,-958.50,-2.17,-7.22,56.92,20.25,-63.30,-42.30,23.96,03/22/2020,00:01:24.200,0,0,0,0,0,0,0,9999,9.879,
01/01/2000,00:01:25.53,-33.69,117.68,-857.91,7.13,-2.58,66.28,23.70,-62.25,-41.25,23.96,03/22/2020,00:01:24.300,0,0,0,0,0,0,0,9999,9.879,
01/01/2000,00:01:25.63,-142.58,33.20,-968.75,19.23,34.27,36.95,26.40,-63.60,-40.65,24.10,03/22/2020,00:01:24.400,0,0,0,0,0,0,0,9999,9.879,
01/01/2000,00:01:25.73,94.24,-6.84,-998.05,24.11,-20.40,40.41,30.60,-63.75,-44.10,23.86,03/22/2020,00:01:24.500,0,0,0,0,0,0,0,9999,9.879,
01/01/2000,00:01:25.83,140.63,-137.70,-969.24,-0.81,8.82,-8.63,31.95,-63.90,-41.40,24.00,03/22/2020,00:01:24.600,0,0,0,0,0,0,0,9999,9.879,
01/01/2000,00:01:25.93,43.95,-256.84,-1018.55,1.47,15.34,-4.48,30.60,-64.95,-39.45,24.10,03/22/2020,00:01:24.700,0,0,0,0,0,0,0,9999,9.879,
01/01/2000,00:01:26.03,53.71,-250.98,-1059.08,6.81,-3.56,23.25,30.60,-67.65,-34.65,24.10,03/22/2020,00:01:24.800,0,0,0,0,0,0,0,9999,9.880,
01/01/2000,00:01:26.13,55.18,-216.80,-978.52,-34.82,37.19,38.02,30.15,-66.60,-35.25,24.10,03/22/2020,00:01:24.900,0,0,0,0,0,0,0,9999,9.880,
01/01/2000,00:01:26.23,131.35,-119.63,-1000.49,-9.21,28.73,34.79,33.0,-62.40,-39.30,24.15,03/22/2020,00:01:25.000,0,0,0,0,0,0,0,9999,9.880,
01/01/2000,00:01:26.33,227.54,-64.94,-1037.11,-24.82,6.76,8.23,30.60,-62.25,-37.20,24.00,03/22/2020,00:01:25.100,0,0,0,0,0,0,0,9999,9.880,
01/01/2000,00:01:26.43,175.78,-3.91,-1002.44,-19.47,21.07,13.44,31.65,-59.70,-38.55,24.15,03/22/2020,00:01:25.200,0,0,0,0,0,0,0,9999,9.880,
01/01/2000,00:01:26.53,244.14,-18.55,-912.11,-0.27,25.37,10.11,29.40,-61.20,-39.90,23.96,03/22/2020,00:01:25.300,0,0,0,0,0,0,0,9999,9.881,
01/01/2000,00:01:26.63,69.82,-22.46,-1134.77,-3.96,-77.25,8.68,28.95,-59.70,-36.0,24.00,03/22/2020,00:01:25.400,0,0,0,0,0,0,0,9999,9.880,
01/01/2000,00:01:26.73,245.12,-114.26,-1391.60,4.73,18.64,-0.12,35.10,-61.50,-35.40,24.10,03/22/2020,00:01:25.500,0,0,0,0,0,0,0,9999,9.882,
01/01/2000,00:01:26.83,70.80,37.60,-1228.52,4.65,-4.10,-0.79,36.0,-59.70,-37.80,23.96,03/22/2020,00:01:25.600,0,0,0,0,0,0,0,9999,9.882,
01/01/2000,00:01:26.93,68.36,-30.76,-986.33,1.15,0.64,-3.56,35.70,-60.45,-37.35,23.81,03/22/2020,00:01:25.700,0,0,0,0,0,0,0,9999,9.880,
01/01/2000,00:01:27.03,62.01,-35.64,-968.26,2.84,1.05,0.57,34.95,-61.65,-39.90,23.96,03/22/2020,00:01:25.800,0,0,0,0,0,0,0,9999,9.879,
01/01/2000,00:01:27.14,44.43,-35.64,-987.30,1.05,-1.22,-2.82,35.85,-60.60,-38.70,24.20,03/22/2020,00:01:25.900,0,0,0,0,0,0,0,9999,9.881,
01/01/2000,00:01:27.24,63.48,-40.04,-967.29,1.92,1.51,-2.73,34.05,-62.55,-35.70,24.10,03/22/2020,00:01:26.000,0,0,0,0,0,0,0,9999,9.881,
01/01/2000,00:01:27.34,63.48,-48.83,-948.73,0.40,1.10,-3.04,35.55,-59.55,-37.95,23.96,03/22/2020,00:01:26.100,0,0,0,0,0,0,0,9999,9.881,
01/01/2000,00:01:27.44,61.04,-44.92,-972.17,0.91,-0.17,-0.98,34.50,-61.20,-35.55,23.81,03/22/2020,00:01:26.200,0,0,0,0,0,0,0,9999,9.882,
01/01/2000,00:01:27.54,58.11,-46.39,-961.91,2.17,0.98,-1.02,34.95,-60.45,-39.60,23.86,03/22/2020,00:01:26.300,0,0,0,0,0,0,0,9999,9.882,
01/01/2000,00:01:27.64,54.69,-40.04,-951.17,1.46,-1.62,0.15,35.10,-61.05,-38.70,24.29,03/22/2020,00:01:26.400,0,0,0,0,0,0,0,9999,9.882,
01/01/2000,00:01:27.74,54.20,-37.11,-966.80,1.97,-0.10,0.93,32.85,-60.60,-36.15,24.10,03/22/2020,00:01:26.500,0,0,0,0,0,0,0,9999,9.882,
01/01/2000,00:01:27.84,56.15,-22.95,-963.38,-0.50,2.65,1.15,33.75,-61.65,-35.55,23.81,03/22/2020,00:01:26.600,0,0,0,0,0,0,0,9999,9.882,
01/01/2000,00:01:27.93,42.97,-21.48,-965.82,3.38,-1.62,4.03,35.55,-59.10,-38.25,24.15,03/22/2020,00:01:26.700,0,0,0,0,0,0,0,9999,9.882,
01/01/2000,00:01:28.03,52.25,-23.93,-954.59,1.27,3.72,1.18,35.25,-60.45,-38.55,23.86,03/22/2020,00:01:26.800,0,0,0,0,0,0,0,9999,9.882,
01/01/2000,00:01:28.13,53.22,-30.76,-959.96,1.89,-1.88,-0.68,36.45,-60.15,-39.30,24.00,03/22/2020,00:01:26.900,0,0,0,0,0,0,0,9999,9.882,
01/01/2000,00:01:28.23,61.04,-31.25,-963.38,1.82,0.25,-1.34,35.55,-60.30,-36.15,24.10,03/22/2020,00:01:27.000,0,0,0,0,0,0,0,9999,9.883,
01/01/2000,00:01:28.33,53.71,-37.11,-966.31,1.31,0.77,-3.31,34.05,-60.30,-35.40,24.15,03/22/2020,00:01:27.100,0,0,0,0,0,0,0,9999,9.883,
01/01/2000,00:01:28.43,62.01,-25.88,-967.29,2.85,1.55,-1.13,37.20,-61.20,-38.55,23.86,03/22/2020,00:01:27.200,0,0,0,0,0,0,0,9999,9.883,
01/01/2000,00:01:28.53,59.08,-36.62,-966.31,2.32,2.09,-0.73,37.20,-58.50,-38.55,24.00,03/22/2020,00:01:27.300,0,0,0,0,0,0,0,9999,9.883,
01/01/2000,00:01:28.63,1.95,-47.85,-1018.55,1.68,-0.52,-1.48,34.50,-61.20,-37.80,24.10,03/22/2020,00:01:27.400,0,0,0,0,0,0,0,9999,9.883,
01/01/2000,00:01:28.73,54.69,-30.27,-1006.35,1.14,0.77,-0.95,35.55,-60.30,-37.95,24.10,03/22/2020,00:01:27.500,0,0,0,0,0,0,0,9999,9.883,
01/01/2000,00:01:28.83,45.90,-40.53,-982.42,2.51,-0.51,-0.53,35.10,-60.30,-38.25,24.00,03/22/2020,00:01:27.600,0,0,0,0,0,0,0,9999,9.883,
01/01/2000,00:01:28.93,50.78,-22.46,-974.12,2.40,0.69,-0.58,36.60,-61.05,-36.90,23.86,03/22/2020,00:01:27.700,0,0,0,0,0,0,0,9999,9.884,
01/01/2000,00:01:29.03,43.95,-39.06,-965.82,0.98,0.55,-6.12,33.75,-62.70,-36.0,23.86,03/22/2020,00:01:27.800,0,0,0,0,0,0,0,9999,9.884,
01/01/2000,00:01:29.13,59.08,-38.57,-969.73,1.62,-0.30,-3.56,35.25,-58.95,-37.80,23.76,03/22/2020,00:01:27.900,0,0,0,0,0,0,0,9999,9.882,
01/01/2000,00:01:29.23,60.06,-48.34,-980.47,5.08,0.31,-1.20,36.0,-60.45,-38.10,24.15,03/22/2020,00:01:28.000,0,0,0,0,0,0,0,9999,9.884,
01/01/2000,00:01:29.33,39.06,-32.71,-965.33,3.78,0.01,-0.31,33.45,-61.95,-35.25,24.20,03/22/2020,00:01:28.100,0,0,0,0,0,0,0,9999,9.884,
01/01/2000,00:01:29.43,68.36,-39.55,-966.31,0.65,3.43,-2.43,35.70,-60.45,-38.10,24.00,03/22/2020,00:01:28.200,0,0,0,0,0,0,0,9999,9.884,
01/01/2000,00:01:29.53,55.18,-26.37,-972.17,1.55,-0.48,-0.95,33.75,-61.20,-36.0,24.15,03/22/2020,00:01:28.300,0,0,0,0,0,0,0,9999,9.884,
01/01/2000,00:01:29.63,49.32,-28.81,-964.84,3.70,-1.19,-0.12,34.20,-61.20,-36.30,24.00,03/22/2020,00:01:28.400,0,0,0,0,0,0,0,9999,9.885,
01/01/2000,00:01:29.73,53.22,-33.69,-975.59,-0.37,0.30,-2.79,33.75,-60.90,-35.55,24.10,03/22/2020,00:01:28.500,0,0,0,0,0,0,0,9999,9.885,
01/01/2000,00:01:29.83,30.27,-31.74,-970.21,2.12,-0.21,-0.40,35.10,-59.55,-38.25,24.10,03/22/2020,00:01:28.600,0,0,0,0,0,0,0,9999,9.885,
01/01/2000,00:01:29.93,52.25,-46.39,-967.77,2.97,0.51,0.99,35.85,-59.85,-38.70,23.96,03/22/2020,00:01:28.700,0,0,0,0,0,0,0,9999,9.885,
01/01/2000,00:01:30.03,61.04,-27.83,-958.98,4.16,-0.07,-0.89,34.80,-60.60,-35.10,24.10,03/22/2020,00:01:28.800,0,0,0,0,0,0,0,9999,9.885,
01/01/2000,00:01:30.13,54.20,-18.55,-954.59,-0.55,1.81,-2.64,32.55,-60.60,-35.40,24.00,03/22/2020,00:01:28.900,0,0,0,0,0,0,0,9999,9.883,
01/01/2000,00:01:30.24,68.36,-40.53,-974.61,0.89,-0.93,-5.73,35.25,-60.15,-38.10,24.10,03/22/2020,00:01:29.000,0,0,0,0,0,0,0,9999,9.885,
01/01/2000,00:01:30.33,52.25,-33.20,-978.03,-0.48,0.86,-1.26,36.75,-58.95,-38.70,24.29,03/22/2020,00:01:29.100,0,0,0,0,0,0,0,9999,9.885,
01/01/2000,00:01:30.43,38.09,-25.39,-963.38,3.13,-1.40,-0.94,35.10,-61.05,-37.20,24.15,03/22/2020,00:01:29.200,0,0,0,0,0,0,0,9999,9.886,
01/01/2000,00:01:30.53,59.57,-31.25,-955.08,3.18,0.79,-1.95,36.15,-59.55,-38.70,24.00,03/22/2020,00:01:29.300,0,0,0,0,0,0,0,9999,9.886,
01/01/2000,00:01:30.63,41.02,-38.09,-968.75,2.27,-0.93,-0.94,34.95,-60.15,-38.85,24.20,03/22/2020,00:01:29.400,0,0,0,0,0,0,0,9999,9.886,
01/01/2000,00:01:30.73,39.06,-38.57,-967.29,2.69,2.39,1.38,32.85,-61.05,-35.40,23.86,03/22/2020,00:01:29.500,0,0,0,0,0,0,0,9999,9.886,
01/01/2000,00:01:30.83,47.36,-41.02,-977.54,0.89,1.17,0.19,34.05,-60.30,-35.40,24.10,03/22/2020,00:01:29.600,0,0,0,0,0,0,0,9999,9.886,
01/01/2000,00:01:30.93,53.22,-30.27,-960.94,0.36,1.37,0.89,34.95,-60.15,-38.85,24.29,03/22/2020,00:01:29.700,0,0,0,0,0,0,0,9999,9.886,
01/01/2000,00:01:31.03,52.73,-41.02,-954.10,2.78,-0.15,0.56,35.55,-60.60,-38.25,24.15,03/22/2020,00:01:29.800,0,0,0,0,0,0,0,9999,9.886,
01/01/2000,00:01:31.13,50.29,-36.13,-952.64,2.30,1.74,-2.25,35.25,-60.15,-37.35,24.15,03/22/2020,00:01:29.900,0,0,0,0,0,0,0,9999,9.886,
01/01/2000,00:01:31.23,49.80,-31.74,-966.31,2.09,1.93,-2.05,34.05,-60.60,-36.15,23.96,03/22/2020,00:01:30.000,0,0,0,0,0,0,0,9999,9.887,
01/01/2000,00:01:31.33,59.08,-31.74,-968.26,2.22,1.57,1.44,34.20,-61.95,-36.60,24.39,03/22/2020,00:01:30.100,0,0,0,0,0,0,0,9999,9.887,
01/01/2000,00:01:31.43,41.99,-33.20,-951.17,2.44,-0.33,1.30,33.45,-61.20,-35.55,24.29,03/22/2020,00:01:30.200,0,0,0,0,0,0,0,9999,9.887,
01/01/2000,00:01:31.53,48.34,-37.60,-979.00,1.52,0.26,0.85,34.80,-60.60,-34.65,24.29,03/22/2020,00:01:30.300,0,0,0,0,0,0,0,9999,9.887,
01/01/2000,00:01:31.63,56.15,-42.97,-959.96,1.09,-1.24,-0.34,35.70,-59.70,-37.80,24.20,03/22/2020,00:01:30.400,0,0,0,0,0,0,0,9999,9.887,
01/01/2000,00:01:31.73,50.29,-33.20,-943.36,2.90,-0.61,1.28,35.25,-60.15,-37.35,24.29,03/22/2020,00:01:30.500,0,0,0,0,0,0,0,9999,9.887,
