rtcDate,rtcTime,aX,aY,aZ,gX,gY,gZ,mX,mY,mZ,imu_degC,gps_Date,gps_Time,gps_Lat,gps_Long,gps_Alt,gps_SIV,gps_FixType,gps_GroundSpeed,gps_Heading,gps_pDOP,output_Hz,
01/01/2000,00:00:02.20,83.50,177.25,-867.19,-27.83,-64.85,-16.95,19.65,36.90,-40.20,20.27,03/22/2020,00:00:01.100,0,0,0,0,0,0,0,9999,25.0,
01/01/2000,00:00:02.30,-62.01,345.70,-508.30,-63.34,-35.48,-6.39,22.50,39.45,-37.05,20.12,03/22/2020,00:00:01.200,0,0,0,0,0,0,0,9999,14.286,
01/01/2000,00:00:02.40,87.89,365.72,-1029.79,-9.48,54.50,23.89,19.50,38.10,-37.95,19.98,03/22/2020,00:00:01.300,0,0,0,0,0,0,0,9999,12.500,
01/01/2000,00:00:02.50,-109.86,408.69,-745.12,18.53,54.86,-6.20,17.85,37.20,-37.05,20.17,03/22/2020,00:00:01.400,0,0,0,0,0,0,0,9999,11.765,
01/01/2000,00:00:02.60,128.91,284.67,-915.04,42.32,-7.24,0.85,14.55,37.35,-38.55,20.27,03/22/2020,00:00:01.600,0,0,0,0,0,0,0,9999,9.091,
01/01/2000,00:00:02.76,114.75,180.66,-1006.35,14.61,20.92,-1.41,16.50,35.10,-40.50,20.27,03/22/2020,00:00:01.700,0,0,0,0,0,0,0,9999,9.231,
01/01/2000,00:00:02.87,218.26,118.16,-864.75,22.08,24.13,2.13,11.70,33.0,-43.05,20.31,03/22/2020,00:00:01.800,0,0,0,0,0,0,0,9999,9.459,
01/01/2000,00:00:02.97,220.21,98.14,-940.43,0.24,21.95,4.05,8.85,31.95,-40.35,20.41,03/22/2020,00:00:01.900,0,0,0,0,0,0,0,9999,9.524,
01/01/2000,00:00:03.07,290.53,167.48,-987.30,2.02,33.48,10.53,9.75,33.60,-42.30,20.17,03/22/2020,00:00:02.000,0,0,0,0,0,0,0,9999,9.677,
01/01/2000,00:00:03.17,301.76,145.02,-791.99,7.81,27.63,-0.29,8.70,34.35,-43.95,20.94,03/22/2020,00:00:02.100,0,0,0,0,0,0,0,9999,9.709,
01/01/2000,00:00:03.27,313.96,92.77,-946.78,4.87,4.86,-2.34,8.85,33.75,-42.0,20.17,03/22/2020,00:00:02.200,0,0,0,0,0,0,0,9999,9.735,
01/01/2000,00:00:03.37,252.93,134.28,-921.88,16.60,11.24,-3.49,7.35,28.50,-40.80,20.46,03/22/2020,00:00:02.300,0,0,0,0,0,0,0,9999,9.756,
01/01/2000,00:00:03.47,115.72,130.86,-901.86,-47.76,76.53,-17.95,3.15,21.15,-37.05,20.46,03/22/2020,00:00:02.400,0,0,0,0,0,0,0,9999,9.774,
01/01/2000,00:00:03.57,175.29,58.11,-1105.47,-22.87,-49.73,-4.02,1.20,25.65,-21.90,20.65,03/22/2020,00:00:02.500,0,0,0,0,0,0,0,9999,9.790,
01/01/2000,00:00:03.67,145.02,-51.76,-1027.83,39.15,22.25,12.21,3.30,23.85,-20.25,20.60,03/22/2020,00:00:02.600,0,0,0,0,0,0,0,9999,9.804,
01/01/2000,00:00:03.77,286.13,83.98,-916.99,-2.88,-54.52,-8.44,4.35,24.30,-23.70,20.60,03/22/2020,00:00:02.700,0,0,0,0,0,0,0,9999,9.816,
01/01/2000,00:00:03.87,87.40,84.47,-1011.72,16.90,-25.74,6.21,7.65,24.45,-22.50,20.51,03/22/2020,00:00:02.800,0,0,0,0,0,0,0,9999,9.827,
01/01/2000,00:00:03.96,4.88,-64.94,-1307.62,46.89,-168.88,7.16,8.70,21.45,-21.75,20.70,03/22/2020,00:00:02.900,0,0,0,0,0,0,0,9999,9.836,
01/01/2000,00:00:04.06,48.34,-31.74,-1059.57,-11.05,-15.90,-7.56,14.10,22.05,-21.60,20.94,03/22/2020,00:00:03.000,0,0,0,0,0,0,0,9999,9.694,
01/01/2000,00:00:04.17,196.78,445.80,-934.08,31.44,10.64,6.66,17.10,22.20,-21.75,20.46,03/22/2020,00:00:03.100,0,0,0,0,0,0,0,9999,9.852,
01/01/2000,00:00:04.27,-103.52,96.68,-1158.20,11.44,-16.29,-4.29,17.70,21.75,-23.70,20.84,03/22/2020,00:00:03.200,0,0,0,0,0,0,0,9999,9.859,
01/01/2000,00:00:04.37,-102.05,33.69,-853.52,-0.66,-89.94,4.32,18.90,20.10,-21.15,20.51,03/22/2020,00:00:03.300,0,0,0,0,0,0,0,9999,9.865,
01/01/2000,00:00:04.47,-235.35,-48.83,-940.92,28.53,-5.13,-13.34,18.90,20.10,-20.10,20.70,03/22/2020,00:00:03.400,0,0,0,0,0,0,0,9999,9.871,
01/01/2000,00:00:04.57,-88.87,-64.45,-954.10,13.03,82.96,12.94,21.75,17.85,-20.10,20.84,03/22/2020,00:00:03.500,0,0,0,0,0,0,0,9999,9.877,
01/01/2000,00:00:04.67,96.19,270.02,-970.21,-60.78,-27.56,5.15,19.65,21.15,-23.10,20.94,03/22/2020,00:00:03.600,0,0,0,0,0,0,0,9999,9.881,
01/01/2000,00:00:04.77,-83.01,108.89,-1639.16,-5.50,67.39,26.85,24.15,20.70,-15.60,20.94,03/22/2020,00:00:03.700,0,0,0,0,0,0,0,9999,9.886,
01/01/2000,00:00:04.87,-255.37,587.40,-1125.49,56.02,-92.10,17.69,19.95,25.20,-20.70,20.60,03/22/2020,00:00:03.800,0,0,0,0,0,0,0,9999,9.890,
01/01/2000,00:00:04.97,-163.09,124.02,-1194.34,-14.93,-7.47,23.91,21.90,24.30,-20.25,20.84,03/22/2020,00:00:03.900,0,0,0,0,0,0,0,9999,9.894,
01/01/2000,00:00:05.07,-1.46,148.93,-1046.88,-14.77,-8.24,12.24,19.50,24.90,-17.40,20.99,03/22/2020,00:00:04.000,0,0,0,0,0,0,0,9999,9.797,
01/01/2000,00:00:05.17,-175.29,-47.85,-861.82,20.57,-69.61,-23.37,21.90,24.30,-20.85,21.03,03/22/2020,00:00:04.100,0,0,0,0,0,0,0,9999,9.868,
01/01/2000,00:00:05.27,-172.85,382.32,-939.94,61.37,-77.63,-19.63,24.0,22.80,-21.60,20.84,03/22/2020,00:00:04.200,0,0,0,0,0,0,0,9999,9.873,
01/01/2000,00:00:05.37,11.23,-86.43,-1030.27,-69.55,57.82,8.98,22.05,20.70,-22.50,21.03,03/22/2020,00:00:04.300,0,0,0,0,0,0,0,9999,9.877,
01/01/2000,00:00:05.47,-312.99,-36.13,-1025.39,19.54,88.03,8.44,23.55,22.20,-16.65,21.03,03/22/2020,00:00:04.400,0,0,0,0,0,0,0,9999,9.880,
01/01/2000,00:00:05.57,-215.82,244.14,-971.19,-24.12,0.31,8.12,23.85,21.15,-14.10,20.84,03/22/2020,00:00:04.500,0,0,0,0,0,0,0,9999,9.884,
01/01/2000,00:00:05.67,-228.52,171.88,-913.09,24.53,48.11,13.52,22.95,20.55,-17.85,20.99,03/22/2020,00:00:04.600,0,0,0,0,0,0,0,9999,9.887,
01/01/2000,00:00:05.77,-427.73,4.39,-1101.07,-13.20,-50.42,5.24,23.25,22.35,-19.80,21.13,03/22/2020,00:00:04.700,0,0,0,0,0,0,0,9999,9.890,
01/01/2000,00:00:05.87,-159.18,197.27,-846.19,29.64,26.85,-9.38,21.30,22.95,-18.30,21.22,03/22/2020,00:00:04.800,0,0,0,0,0,0,0,9999,9.893,
01/01/2000,00:00:05.97,-164.06,-3.42,-836.91,4.76,70.96,8.98,19.95,22.95,-22.50,21.18,03/22/2020,00:00:04.900,0,0,0,0,0,0,0,9999,9.896,
01/01/2000,00:00:06.07,-101.07,-78.13,-1086.91,-17.55,-61.15,9.36,19.95,20.70,-23.85,21.18,03/22/2020,00:00:05.000,0,0,0,0,0,0,0,9999,9.898,
01/01/2000,00:00:06.17,283.20,1312.99,-2000.0,-32.36,44.60,-12.99,21.30,19.65,-20.70,21.13,03/22/2020,00:00:05.100,0,0,0,0,0,0,0,9999,9.926,
01/01/2000,00:00:06.27,-254.88,-211.91,-915.53,-2.82,-51.79,-18.11,22.05,16.35,-20.40,21.32,03/22/2020,00:00:05.200,0,0,0,0,0,0,0,9999,9.927,
01/01/2000,00:00:06.37,-275.39,151.37,-1208.01,-60.19,19.82,-117.17,26.25,17.85,-20.70,21.18,03/22/2020,00:00:05.300,0,0,0,0,0,0,0,9999,9.929,
01/01/2000,00:00:06.47,-189.94,427.73,-1095.70,-68.01,144.89,-133.25,20.25,20.10,-22.80,21.18,03/22/2020,00:00:05.400,0,0,0,0,0,0,0,9999,9.931,
01/01/2000,00:00:06.57,86.43,180.66,-1026.37,135.18,16.15,-105.17,16.05,16.05,-22.80,21.22,03/22/2020,00:00:05.500,0,0,0,0,0,0,0,9999,9.932,
01/01/2000,00:00:06.67,256.84,-0.98,-799.80,34.88,134.16,-105.69,14.70,7.65,-29.10,21.32,03/22/2020,00:00:05.600,0,0,0,0,0,0,0,9999,9.934,
01/01/2000,00:00:06.77,1065.92,-630.37,51.76,-8.73,21.58,-66.60,11.55,0.0,-27.30,21.37,03/22/2020,00:00:05.700,0,0,0,0,0,0,0,9999,9.935,
01/01/2000,00:00:06.87,722.17,-76.17,-885.74,10.55,-58.18,24.75,6.90,-1.05,-28.65,21.37,03/22/2020,00:00:05.800,0,0,0,0,0,0,0,9999,9.937,
01/01/2000,00:00:06.97,-880.37,-168.95,-1526.37,36.86,-65.98,0.85,9.30,0.45,-27.90,21.32,03/22/2020,00:00:05.900,0,0,0,0,0,0,0,9999,9.938,
01/01/2000,00:00:07.07,356.93,-114.26,-879.39,22.44,-83.50,-4.89,14.85,-1.95,-27.90,21.32,03/22/2020,00:00:06.000,0,0,0,0,0,0,0,9999,9.879,
01/01/2000,00:00:07.17,146.00,-121.58,-775.39,-10.31,-6.93,7.89,21.60,-3.0,-28.50,21.37,03/22/2020,00:00:06.100,0,0,0,0,0,0,0,9999,9.921,
01/01/2000,00:00:07.27,1.95,-114.26,-926.27,-7.68,-77.74,-52.21,17.70,-1.20,-28.50,21.66,03/22/2020,00:00:06.200,0,0,0,0,0,0,0,9999,9.922,
01/01/2000,00:00:07.37,3.42,-128.42,-955.08,8.85,-31.56,-5.48,25.20,-2.55,-23.10,21.51,03/22/2020,00:00:06.300,0,0,0,0,0,0,0,9999,9.924,
01/01/2000,00:00:07.47,-388.18,-111.33,-1021.48,-19.05,-9.02,1.63,29.70,-2.70,-19.20,21.37,03/22/2020,00:00:06.400,0,0,0,0,0,0,0,9999,9.925,
01/01/2000,00:00:07.57,-180.66,-88.87,-986.82,37.07,-73.37,-10.93,32.85,-0.90,-20.55,21.56,03/22/2020,00:00:06.500,0,0,0,0,0,0,0,9999,9.945,
01/01/2000,00:00:07.67,82.52,-169.43,-794.43,10.62,69.06,-4.06,26.85,-2.70,-20.55,21.18,03/22/2020,00:00:06.600,0,0,0,0,0,0,0,9999,9.946,
01/01/2000,00:00:07.77,-183.11,-146.48,-911.62,-53.77,136.01,-4.88,26.40,-3.75,-26.10,21.37,03/22/2020,00:00:06.700,0,0,0,0,0,0,0,9999,9.947,
01/01/2000,00:00:07.87,149.90,-109.86,-908.69,20.66,-7.15,-6.92,19.50,-2.70,-28.95,21.66,03/22/2020,00:00:06.800,0,0,0,0,0,0,0,9999,9.948,
01/01/2000,00:00:07.97,304.20,-202.64,-995.12,21.18,-17.59,23.51,17.70,-4.50,-28.50,21.22,03/22/2020,00:00:06.900,0,0,0,0,0,0,0,9999,9.949,
01/01/2000,00:00:08.07,99.61,-267.58,-1026.37,16.92,-16.21,6.28,16.05,-5.85,-25.95,21.75,03/22/2020,00:00:07.000,0,0,0,0,0,0,0,9999,9.949,
01/01/2000,00:00:08.17,-80.08,-295.41,-612.79,-20.30,50.43,-20.10,16.95,-4.20,-28.95,21.46,03/22/2020,00:00:07.100,0,0,0,0,0,0,0,9999,9.950,
01/01/2000,00:00:08.27,49.32,-175.29,-882.81,-23.95,-250.14,-49.16,21.60,-1.95,-28.50,21.70,03/22/2020,00:00:07.200,0,0,0,0,0,0,0,9999,9.951,
01/01/2000,00:00:08.37,59.57,-119.14,-1073.73,-29.72,-52.11,-32.60,31.50,-1.05,-22.20,21.32,03/22/2020,00:00:07.300,0,0,0,0,0,0,0,9999,9.952,
01/01/2000,00:00:08.47,-195.80,-37.60,-1146.00,-21.92,-1.75,10.18,31.35,-2.25,-19.50,21.66,03/22/2020,00:00:07.400,0,0,0,0,0,0,0,9999,9.953,
01/01/2000,00:00:08.56,-232.91,97.66,-1056.64,-34.89,-24.37,51.63,31.05,3.0,-17.40,21.70,03/22/2020,00:00:07.500,0,0,0,0,0,0,0,9999,9.953,
01/01/2000,00:00:08.66,-328.13,304.20,-1128.91,104.57,1.38,-53.85,31.50,2.55,-19.65,21.56,03/22/2020,00:00:07.600,0,0,0,0,0,0,0,9999,9.954,
01/01/2000,00:00:08.76,-99.61,-9.28,-864.75,60.31,165.30,35.17,30.30,-3.45,-19.80,21.85,03/22/2020,00:00:07.700,0,0,0,0,0,0,0,9999,9.955,
01/01/2000,00:00:08.86,-428.71,-427.25,-868.16,55.39,-88.86,-31.70,33.30,-5.85,-20.40,21.56,03/22/2020,00:00:07.800,0,0,0,0,0,0,0,9999,9.955,
01/01/2000,00:00:08.96,-139.65,-492.19,-798.83,-12.50,137.95,10.11,32.40,-8.85,-21.30,21.90,03/22/2020,00:00:07.900,0,0,0,0,0,0,0,9999,9.913,
01/01/2000,00:00:09.07,-75.68,-266.11,-828.61,28.19,-65.05,-35.20,24.60,-9.75,-21.15,21.75,03/22/2020,00:00:08.000,0,0,0,0,0,0,0,9999,9.942,
01/01/2000,00:00:09.17,-80.08,-186.52,-649.41,2.64,-29.43,-25.89,31.20,-9.0,-18.30,21.51,03/22/2020,00:00:08.100,0,0,0,0,0,0,0,9999,9.943,
01/01/2000,00:00:09.27,-54.20,-45.90,-794.43,-7.05,-82.62,3.76,36.15,-8.40,-15.60,21.70,03/22/2020,00:00:08.200,0,0,0,0,0,0,0,9999,9.944,
01/01/2000,00:00:09.37,-161.62,134.77,-757.32,-4.84,-5.23,-53.76,39.0,-10.50,-11.40,22.09,03/22/2020,00:00:08.300,0,0,0,0,0,0,0,9999,9.945,
01/01/2000,00:00:09.47,-350.59,-24.41,-1056.64,-67.49,29.48,37.67,35.85,-11.25,-11.10,21.90,03/22/2020,00:00:08.400,0,0,0,0,0,0,0,9999,9.946,
01/01/2000,00:00:09.57,-135.25,203.61,-777.34,-79.27,53.21,-34.01,37.20,-7.95,-13.50,21.56,03/22/2020,00:00:08.500,0,0,0,0,0,0,0,9999,9.946,
01/01/2000,00:00:09.67,-67.87,-162.60,-1048.83,-74.58,64.60,9.60,29.70,-7.35,-14.70,21.75,03/22/2020,00:00:08.600,0,0,0,0,0,0,0,9999,9.947,
01/01/2000,00:00:09.77,22.95,-70.80,-1500.49,-76.39,-0.24,80.27,26.25,-1.35,-20.40,21.85,03/22/2020,00:00:08.700,0,0,0,0,0,0,0,9999,9.948,
01/01/2000,00:00:09.87,-306.64,111.33,-1261.72,2.55,16.11,43.76,28.95,5.25,-17.40,21.70,03/22/2020,00:00:08.800,0,0,0,0,0,0,0,9999,9.948,
01/01/2000,00:00:09.97,-50.29,93.26,-914.06,-83.76,42.63,-7.02,26.10,8.55,-20.55,22.04,03/22/2020,00:00:08.900,0,0,0,0,0,0,0,9999,9.949,
01/01/2000,00:00:10.07,93.26,164.06,-479.00,34.82,35.20,2.26,26.40,7.35,-22.35,21.99,03/22/2020,00:00:09.000,0,0,0,0,0,0,0,9999,9.950,
01/01/2000,00:00:10.17,112.79,352.05,-1332.03,54.26,19.73,2.72,25.05,3.75,-21.90,21.90,03/22/2020,00:00:09.100,0,0,0,0,0,0,0,9999,9.950,
01/01/2000,00:00:10.27,22.46,80.08,-868.65,-8.57,25.43,2.20,22.80,-3.60,-20.40,21.85,03/22/2020,00:00:09.200,0,0,0,0,0,0,0,9999,9.951,
01/01/2000,00:00:10.37,-43.46,12.21,-971.19,3.60,-1.69,0.53,24.90,-2.10,-21.15,22.09,03/22/2020,00:00:09.300,0,0,0,0,0,0,0,9999,9.951,
01/01/2000,00:00:10.47,-41.02,-0.49,-967.29,6.08,-0.05,2.53,25.35,-0.90,-22.65,21.90,03/22/2020,00:00:09.400,0,0,0,0,0,0,0,9999,9.952,
01/01/2000,00:00:10.57,-35.16,-5.86,-965.33,1.95,-2.69,-1.66,24.30,-1.95,-20.85,22.09,03/22/2020,00:00:09.500,0,0,0,0,0,0,0,9999,9.953,
01/01/2000,00:00:10.67,-60.06,-0.98,-957.52,2.11,1.05,-0.05,25.65,-1.35,-21.75,22.04,03/22/2020,00:00:09.600,0,0,0,0,0,0,0,9999,9.953,
01/01/2000,00:00:10.77,-49.32,6.84,-973.14,2.43,0.20,0.82,26.70,0.30,-23.10,22.04,03/22/2020,00:00:09.700,0,0,0,0,0,0,0,9999,9.954,
01/01/2000,00:00:10.87,-42.97,-2.93,-974.61,1.55,2.02,-1.35,23.10,-2.85,-21.45,22.09,03/22/2020,00:00:09.800,0,0,0,0,0,0,0,9999,9.954,
01/01/2000,00:00:10.97,-43.46,5.86,-962.89,2.93,0.49,2.79,23.55,-2.55,-19.35,22.09,03/22/2020,00:00:09.900,0,0,0,0,0,0,0,9999,9.966,
01/01/2000,00:00:11.07,-34.18,8.30,-975.10,1.08,0.85,-1.02,25.05,-0.45,-22.95,22.04,03/22/2020,00:00:10.000,0,0,0,0,0,0,0,9999,9.966,
01/01/2000,00:00:11.17,-41.50,-9.77,-962.89,2.44,1.36,-1.53,24.60,-0.30,-23.10,22.18,03/22/2020,00:00:10.100,0,0,0,0,0,0,0,9999,9.967,
01/01/2000,00:00:11.27,-53.22,12.21,-965.33,0.21,-0.79,2.11,26.40,-1.20,-23.70,22.04,03/22/2020,00:00:10.200,0,0,0,0,0,0,0,9999,9.967,
01/01/2000,00:00:11.37,-32.71,-4.39,-966.80,2.37,0.87,0.62,23.70,-2.25,-21.90,22.28,03/22/2020,00:00:10.300,0,0,0,0,0,0,0,9999,9.967,
01/01/2000,00:00:11.47,-50.29,-5.86,-958.98,0.85,-0.45,-2.06,27.0,-1.05,-23.85,22.09,03/22/2020,00:00:10.400,0,0,0,0,0,0,0,9999,9.968,
01/01/2000,00:00:11.57,-49.32,2.93,-967.77,-0.15,-1.02,0.32,24.60,-2.10,-21.15,22.28,03/22/2020,00:00:10.500,0,0,0,0,0,0,0,9999,9.968,
01/01/2000,00:00:11.67,-36.62,-1.95,-971.19,1.45,0.76,-1.57,25.80,-0.15,-22.65,22.23,03/22/2020,00:00:10.600,0,0,0,0,0,0,0,9999,9.969,
01/01/2000,00:00:11.77,-35.64,-2.44,-961.91,1.92,-0.51,-0.04,24.30,-3.0,-20.85,21.85,03/22/2020,00:00:10.700,0,0,0,0,0,0,0,9999,9.969,
01/01/2000,00:00:11.86,-36.13,5.37,-974.12,2.61,0.73,1.75,26.25,-1.35,-24.15,21.90,03/22/2020,00:00:10.800,0,0,0,0,0,0,0,9999,9.969,
01/01/2000,00:00:11.96,-32.71,10.74,-963.38,2.89,-2.21,1.67,25.95,-0.30,-22.50,22.23,03/22/2020,00:00:10.900,0,0,0,0,0,0,0,9999,9.969,
01/01/2000,00:00:12.06,-43.46,0.49,-952.64,1.37,-2.23,-0.74,24.30,-1.50,-20.85,21.90,03/22/2020,00:00:11.000,0,0,0,0,0,0,0,9999,9.940,
01/01/2000,00:00:12.17,-40.04,2.44,-973.14,-0.31,1.66,0.36,25.35,-0.15,-23.40,22.37,03/22/2020,00:00:11.100,0,0,0,0,0,0,0,9999,9.960,
01/01/2000,00:00:12.27,-38.57,4.88,-983.89,2.60,0.62,3.01,26.10,-0.90,-22.65,22.23,03/22/2020,00:00:11.200,0,0,0,0,0,0,0,9999,9.961,
01/01/2000,00:00:12.37,-36.13,0.49,-969.73,1.38,-0.19,1.68,26.10,-0.90,-22.95,22.23,03/22/2020,00:00:11.300,0,0,0,0,0,0,0,9999,9.961,
01/01/2000,00:00:12.47,-38.09,12.70,-974.12,1.45,1.05,-1.68,24.0,-1.50,-21.30,22.09,03/22/2020,00:00:11.400,0,0,0,0,0,0,0,9999,9.961,
01/01/2000,00:00:12.57,-46.39,0.98,-977.05,1.08,2.70,-2.91,23.70,-4.20,-20.25,22.57,03/22/2020,00:00:11.500,0,0,0,0,0,0,0,9999,9.962,
01/01/2000,00:00:12.67,-43.95,9.28,-969.73,2.64,-0.68,-1.01,24.75,-1.50,-19.20,22.04,03/22/2020,00:00:11.600,0,0,0,0,0,0,0,9999,9.962,
01/01/2000,00:00:12.77,-34.18,-3.91,-984.38,0.56,2.02,-3.19,26.25,-0.30,-22.80,22.18,03/22/2020,00:00:11.700,0,0,0,0,0,0,0,9999,9.972,
01/01/2000,00:00:12.87,-46.39,14.16,-961.43,0.66,1.07,0.41,25.35,-2.25,-20.85,22.28,03/22/2020,00:00:11.800,0,0,0,0,0,0,0,9999,9.972,
01/01/2000,00:00:12.97,-36.13,14.65,-960.94,3.90,-1.82,1.95,25.95,-0.60,-23.55,22.28,03/22/2020,00:00:11.900,0,0,0,0,0,0,0,9999,9.972,
01/01/2000,00:00:13.07,-51.27,-0.98,-970.21,2.52,1.92,-3.37,25.65,-0.60,-24.15,22.28,03/22/2020,00:00:12.000,0,0,0,0,0,0,0,9999,9.973,
01/01/2000,00:00:13.17,-29.30,1.46,-973.14,1.85,-0.27,2.15,22.80,-1.80,-20.70,22.52,03/22/2020,00:00:12.100,0,0,0,0,0,0,0,9999,9.973,
01/01/2000,00:00:13.27,-40.04,10.25,-969.24,1.63,2.26,-3.23,23.85,-1.80,-20.70,22.09,03/22/2020,00:00:12.200,0,0,0,0,0,0,0,9999,9.973,
01/01/2000,00:00:13.37,-47.36,9.28,-960.45,-0.12,3.38,-2.35,25.80,-0.90,-23.40,22.37,03/22/2020,00:00:12.300,0,0,0,0,0,0,0,9999,9.973,
01/01/2000,00:00:13.47,-42.48,21.97,-987.79,0.76,2.58,0.08,25.35,-0.45,-22.95,22.28,03/22/2020,00:00:12.400,0,0,0,0,0,0,0,9999,9.974,
01/01/2000,00:00:13.57,-25.88,10.25,-968.75,2.14,-1.34,3.34,27.0,-1.80,-23.85,22.04,03/22/2020,00:00:12.500,0,0,0,0,0,0,0,9999,9.974,
01/01/2000,00:00:13.67,-43.95,9.28,-959.96,-0.28,0.61,-0.24,23.25,-1.95,-20.85,22.37,03/22/2020,00:00:12.600,0,0,0,0,0,0,0,9999,9.974,
01/01/2000,00:00:13.77,-49.32,14.16,-967.29,4.07,0.65,1.39,23.55,-2.10,-19.35,22.28,03/22/2020,00:00:12.700,0,0,0,0,0,0,0,9999,9.974,
01/01/2000,00:00:13.86,-33.69,-6.35,-959.47,3.09,-2.18,-0.01,24.75,-1.95,-21.30,22.28,03/22/2020,00:00:12.800,0,0,0,0,0,0,0,9999,9.974,
01/01/2000,00:00:13.96,-40.04,7.81,-975.59,2.74,0.08,0.33,23.85,-2.85,-22.50,22.18,03/22/2020,00:00:12.900,0,0,0,0,0,0,0,9999,9.975,
01/01/2000,00:00:14.06,-26.86,5.37,-974.61,2.97,2.13,2.32,26.10,-0.15,-21.60,22.23,03/22/2020,00:00:13.000,0,0,0,0,0,0,0,9999,9.950,
01/01/2000,00:00:14.17,-42.48,2.93,-968.26,3.16,-0.27,0.30,25.65,-1.35,-23.10,22.52,03/22/2020,00:00:13.100,0,0,0,0,0,0,0,9999,9.975,
01/01/2000,00:00:14.27,-32.23,5.86,-967.29,-0.98,-1.24,-0.40,23.25,-1.20,-21.60,22.37,03/22/2020,00:00:13.200,0,0,0,0,0,0,0,9999,9.967,
01/01/2000,00:00:14.37,-30.27,-5.37,-953.13,2.02,-1.13,-0.57,23.70,-2.70,-20.85,22.23,03/22/2020,00:00:13.300,0,0,0,0,0,0,0,9999,9.967,
01/01/2000,00:00:14.47,-23.44,10.25,-974.61,1.13,-0.33,1.36,26.25,-1.80,-22.80,22.28,03/22/2020,00:00:13.400,0,0,0,0,0,0,0,9999,9.976,
01/01/2000,00:00:14.57,-30.27,8.79,-983.40,-0.60,2.24,0.90,26.25,-0.30,-22.50,22.52,03/22/2020,00:00:13.500,0,0,0,0,0,0,0,9999,9.976,
01/01/2000,00:00:14.67,-33.20,3.91,-964.84,1.82,0.34,1.45,25.65,0.0,-22.50,22.61,03/22/2020,00:00:13.600,0,0,0,0,0,0,0,9999,9.976,
01/01/2000,00:00:14.77,-39.06,-6.35,-977.54,0.44,1.30,-1.86,24.30,-1.50,-21.30,22.61,03/22/2020,00:00:13.700,0,0,0,0,0,0,0,9999,9.976,
01/01/2000,00:00:14.87,-55.66,-4.39,-958.50,0.21,3.47,0.39,22.95,-3.0,-21.60,22.57,03/22/2020,00:00:13.800,0,0,0,0,0,0,0,9999,9.976,
01/01/2000,00:00:14.97,-45.41,7.32,-955.57,2.66,-0.27,2.15,24.90,-2.10,-21.75,22.42,03/22/2020,00:00:13.900,0,0,0,0,0,0,0,9999,9.977,
01/01/2000,00:00:15.07,-39.55,-5.37,-966.80,2.97,-1.04,1.72,25.65,-1.80,-22.80,22.57,03/22/2020,00:00:14.000,0,0,0,0,0,0,0,9999,9.954,
01/01/2000,00:00:15.17,-49.32,2.44,-951.17,1.78,1.74,0.37,25.05,-0.15,-24.45,22.23,03/22/2020,00:00:14.100,0,0,0,0,0,0,0,9999,9.969,
01/01/2000,00:00:15.27,-50.78,-9.77,-971.19,2.37,-0.86,0.40,25.35,-1.50,-22.65,22.57,03/22/2020,00:00:14.200,0,0,0,0,0,0,0,9999,9.970,
01/01/2000,00:00:15.37,-44.43,-3.42,-974.12,3.01,0.82,0.70,25.95,-1.80,-22.20,22.81,03/22/2020,00:00:14.300,0,0,0,0,0,0,0,9999,9.970,
01/01/2000,00:00:15.47,-27.83,3.42,-952.15,-0.65,0.49,-0.60,23.85,-0.60,-21.15,22.61,03/22/2020,00:00:14.400,0,0,0,0,0,0,0,9999,9.970,
01/01/2000,00:00:15.57,-35.64,8.30,-969.73,3.05,0.08,-1.11,25.20,-1.80,-21.45,22.71,03/22/2020,00:00:14.500,0,0,0,0,0,0,0,9999,9.970,
01/01/2000,00:00:15.67,-31.25,-10.25,-959.96,6.84,1.98,-2.54,26.25,-1.35,-22.50,22.76,03/22/2020,00:00:14.600,0,0,0,0,0,0,0,9999,9.970,
01/01/2000,00:00:15.77,-41.02,12.21,-968.75,2.66,-2.98,-0.28,25.65,0.60,-23.55,22.57,03/22/2020,00:00:14.700,0,0,0,0,0,0,0,9999,9.971,
01/01/2000,00:00:15.87,-39.06,-5.86,-971.68,0.68,1.01,1.45,25.20,-1.35,-21.45,22.57,03/22/2020,00:00:14.800,0,0,0,0,0,0,0,9999,9.971,
01/01/2000,00:00:15.97,-47.85,19.04,-970.21,1.34,0.53,3.33,23.55,-1.80,-20.70,22.37,03/22/2020,00:00:14.900,0,0,0,0,0,0,0,9999,9.971,
01/01/2000,00:00:16.07,-45.90,4.39,-967.77,4.63,-0.21,-1.15,23.85,-2.10,-21.45,22.57,03/22/2020,00:00:15.000,0,0,0,0,0,0,0,9999,9.978,
01/01/2000,00:00:16.17,-38.09,6.84,-958.98,3.53,-0.68,0.77,25.80,-0.90,-22.65,22.61,03/22/2020,00:00:15.100,0,0,0,0,0,0,0,9999,9.979,
01/01/2000,00:00:16.27,-47.36,7.81,-966.80,2.18,1.33,-2.08,24.30,-2.25,-20.85,22.61,03/22/2020,00:00:15.200,0,0,0,0,0,0,0,9999,9.979,
01/01/2000,00:00:16.37,-30.76,0.49,-976.07,0.85,2.24,-1.79,26.85,-0.90,-22.95,22.95,03/22/2020,00:00:15.300,0,0,0,0,0,0,0,9999,9.979,
01/01/2000,00:00:16.47,-44.92,1.46,-958.01,1.87,2.18,-1.42,26.10,-1.50,-22.65,22.42,03/22/2020,00:00:15.400,0,0,0,0,0,0,0,9999,9.979,
01/01/2000,00:00:16.57,-47.36,-17.58,-987.30,1.33,1.01,-2.03,24.30,-2.25,-20.85,22.71,03/22/2020,00:00:15.500,0,0,0,0,0,0,0,9999,9.979,
01/01/2000,00:00:16.67,-39.06,1.95,-956.05,3.43,-1.83,1.44,22.95,-1.95,-21.30,22.76,03/22/2020,00:00:15.600,0,0,0,0,0,0,0,9999,9.979,
01/01/2000,00:00:16.77,-36.62,-20.02,-975.10,2.98,1.73,-1.11,25.20,-1.05,-22.20,22.57,03/22/2020,00:00:15.700,0,0,0,0,0,0,0,9999,9.979,
01/01/2000,00:00:16.87,-39.06,-2.93,-955.57,2.52,-0.11,-0.65,25.65,-1.05,-23.10,22.61,03/22/2020,00:00:15.800,0,0,0,0,0,0,0,9999,9.980,
01/01/2000,00:00:16.96,-5.86,-15.14,-949.71,0.34,0.78,-2.12,26.25,-0.60,-22.80,22.57,03/22/2020,00:00:15.900,0,0,0,0,0,0,0,9999,9.980,
01/01/2000,00:00:17.06,-43.95,10.74,-970.21,2.0,2.42,0.67,23.70,-1.20,-20.55,22.76,03/22/2020,00:00:16.000,0,0,0,0,0,0,0,9999,9.960,
01/01/2000,00:00:17.17,-55.18,6.84,-965.33,1.98,0.86,-5.28,26.40,-0.90,-23.70,22.76,03/22/2020,00:00:16.100,0,0,0,0,0,0,0,9999,9.973,
01/01/2000,00:00:17.27,-34.67,-4.88,-968.75,0.98,1.99,0.03,24.90,-1.35,-22.80,22.81,03/22/2020,00:00:16.200,0,0,0,0,0,0,0,9999,9.974,
01/01/2000,00:00:17.37,-53.71,10.74,-981.93,3.02,-0.94,1.28,25.80,-1.50,-22.65,22.76,03/22/2020,00:00:16.300,0,0,0,0,0,0,0,9999,9.974,
01/01/2000,00:00:17.47,-45.90,-0.49,-979.98,4.62,-0.19,-1.67,22.80,0.0,-19.35,22.90,03/22/2020,00:00:16.400,0,0,0,0,0,0,0,9999,9.974,
01/01/2000,00:00:17.57,-46.39,-17.58,-962.40,0.59,2.08,1.07,24.75,-0.90,-24.0,22.81,03/22/2020,00:00:16.500,0,0,0,0,0,0,0,9999,9.974,
01/01/2000,00:00:17.67,-42.48,-5.86,-962.40,0.53,3.70,1.92,24.30,-1.50,-20.25,22.76,03/22/2020,00:00:16.600,0,0,0,0,0,0,0,9999,9.974,
01/01/2000,00:00:17.77,-49.80,7.32,-958.50,1.40,0.45,-1.65,23.55,-1.05,-21.45,22.81,03/22/2020,00:00:16.700,0,0,0,0,0,0,0,9999,9.974,
01/01/2000,00:00:17.87,-42.97,13.67,-974.61,1.42,-0.60,-2.17,26.40,-0.45,-24.45,22.90,03/22/2020,00:00:16.800,0,0,0,0,0,0,0,9999,9.975,
01/01/2000,00:00:17.97,-34.18,1.46,-958.01,1.10,0.93,-3.03,26.25,-1.80,-22.50,22.81,03/22/2020,00:00:16.900,0,0,0,0,0,0,0,9999,9.981,
01/01/2000,00:00:18.07,-40.53,-5.37,-977.54,2.24,-0.70,3.47,25.05,-1.50,-23.70,23.09,03/22/2020,00:00:17.000,0,0,0,0,0,0,0,9999,9.981,
01/01/2000,00:00:18.17,-39.55,0.49,-974.61,2.91,1.06,-1.11,24.0,-1.95,-20.25,22.90,03/22/2020,00:00:17.100,0,0,0,0,0,0,0,9999,9.981,
01/01/2000,00:00:18.27,-41.02,-5.86,-979.00,1.20,0.27,-0.99,23.10,-0.60,-19.65,22.90,03/22/2020,00:00:17.200,0,0,0,0,0,0,0,9999,9.981,
01/01/2000,00:00:18.37,-104.49,-5.37,-1024.90,4.18,-2.66,-1.72,24.0,-2.25,-20.85,22.81,03/22/2020,00:00:17.300,0,0,0,0,0,0,0,9999,9.982,
01/01/2000,00:00:18.47,-31.25,26.86,-968.26,0.62,1.07,-2.25,26.10,-1.95,-22.95,22.57,03/22/2020,00:00:17.400,0,0,0,0,0,0,0,9999,9.982,
01/01/2000,00:00:18.57,-22.95,9.28,-966.31,1.85,0.68,-1.26,27.0,-1.05,-22.20,22.76,03/22/2020,00:00:17.500,0,0,0,0,0,0,0,9999,9.982,
01/01/2000,00:00:18.67,-35.16,9.77,-959.47,2.63,-1.21,0.69,24.30,-1.95,-22.35,23.09,03/22/2020,00:00:17.600,0,0,0,0,0,0,0,9999,9.982,
01/01/2000,00:00:18.77,-40.53,-7.32,-974.61,0.58,3.37,-0.86,26.25,0.0,-21.75,22.90,03/22/2020,00:00:17.700,0,0,0,0,0,0,0,9999,9.982,
01/01/2000,00:00:18.86,-30.76,-4.88,-960.45,4.47,-0.44,-0.99,25.65,-1.80,-21.15,22.71,03/22/2020,00:00:17.800,0,0,0,0,0,0,0,9999,9.982,
01/01/2000,00:00:18.96,-40.04,-4.88,-953.13,0.15,2.47,-1.75,22.95,-1.95,-21.30,22.71,03/22/2020,00:00:17.900,0,0,0,0,0,0,0,9999,9.982,
01/01/2000,00:00:19.06,-32.23,5.86,-969.73,1.37,0.82,0.51,25.20,-1.05,-23.10,22.81,03/22/2020,00:00:18.000,0,0,0,0,0,0,0,9999,9.965,
01/01/2000,00:00:19.17,-34.67,-6.35,-974.12,1.50,0.92,2.15,25.95,-0.60,-23.10,22.90,03/22/2020,00:00:18.100,0,0,0,0,0,0,0,9999,9.977,
01/01/2000,00:00:19.27,-33.20,8.30,-956.05,2.62,1.72,0.81,23.70,-1.50,-20.25,22.81,03/22/2020,00:00:18.200,0,0,0,0,0,0,0,9999,9.982,
01/01/2000,00:00:19.37,-39.06,-5.86,-966.80,-0.24,0.23,0.62,22.95,-1.95,-20.25,23.05,03/22/2020,00:00:18.300,0,0,0,0,0,0,0,9999,9.983,
01/01/2000,00:00:19.47,-51.27,-0.49,-956.05,2.19,0.65,-1.25,24.15,-1.35,-20.10,22.76,03/25/2020,14:55:39.163,0,0,0,0,0,0,0,9999,9.983,
01/01/2000,00:00:19.57,-41.02,-6.84,-963.87,3.82,-0.40,0.37,26.40,-0.90,-22.95,23.24,03/25/2020,14:55:39.263,0,0,0,0,0,0,0,9999,9.983,
01/01/2000,00:00:19.67,-37.60,0.98,-969.24,2.45,0.69,-2.50,24.0,-1.95,-20.55,23.09,03/25/2020,14:55:39.363,0,0,0,0,0,0,0,9999,9.983,
01/01/2000,00:00:19.77,-40.53,0.98,-971.19,3.76,1.09,0.05,26.10,-1.20,-21.90,22.95,03/25/2020,14:55:39.500,0,0,0,0,0,0,0,9999,9.949,
01/01/2000,00:00:19.90,-35.64,11.72,-962.89,1.01,-0.35,3.81,25.35,-0.45,-23.40,23.14,03/25/2020,14:55:39.600,0,0,0,0,0,0,0,9999,9.961,
01/01/2000,00:00:20.00,-35.16,4.39,-959.47,2.93,-0.14,-0.95,23.55,-1.35,-19.65,22.90,03/25/2020,14:55:39.700,0,0,0,0,0,0,0,9999,9.961,
01/01/2000,00:00:20.10,-37.11,13.67,-973.63,2.93,1.73,-1.87,24.30,-2.70,-21.90,23.09,03/25/2020,14:55:39.800,0,0,0,0,0,0,0,9999,9.961,
01/01/2000,00:00:20.20,-43.46,-2.44,-951.17,1.70,-0.17,-0.92,25.35,-0.15,-24.0,23.29,03/25/2020,14:55:39.900,0,0,0,0,0,0,0,9999,9.961,
01/01/2000,00:00:20.30,-48.83,3.91,-968.75,0.79,1.78,-0.95,25.80,-0.45,-24.45,23.09,03/25/2020,14:55:40.000,0,0,0,0,0,0,0,9999,9.951,
01/01/2000,00:00:20.41,-46.39,-12.70,-973.14,1.81,1.80,1.11,25.20,-4.65,-21.45,22.81,03/25/2020,14:55:40.100,0,0,0,0,0,0,0,9999,9.956,
01/01/2000,00:00:20.51,-45.41,-2.44,-970.21,4.34,1.04,0.48,25.95,-1.35,-19.35,23.09,03/25/2020,14:55:40.200,0,0,0,0,0,0,0,9999,9.956,
01/01/2000,00:00:20.61,-43.46,10.74,-966.80,3.31,0.34,-1.94,26.70,-1.05,-23.10,23.09,03/25/2020,14:55:40.300,0,0,0,0,0,0,0,9999,9.957,
01/01/2000,00:00:20.71,-46.39,7.81,-969.73,1.27,0.11,2.90,26.40,-1.50,-22.65,23.09,03/25/2020,14:55:40.400,0,0,0,0,0,0,0,9999,9.957,
01/01/2000,00:00:20.81,-45.41,2.44,-970.70,-0.63,0.81,-0.52,26.40,0.45,-22.65,23.24,03/25/2020,14:55:40.500,0,0,0,0,0,0,0,9999,9.957,
01/01/2000,00:00:20.91,-54.20,-0.98,-981.93,2.97,-0.35,0.13,25.20,-2.55,-20.70,23.14,03/25/2020,14:55:40.600,0,0,0,0,0,0,0,9999,9.957,
01/01/2000,00:00:21.01,-50.29,1.95,-969.73,1.52,-1.62,1.53,23.85,-2.10,-18.90,23.14,03/25/2020,14:55:40.700,0,0,0,0,0,0,0,9999,9.958,
01/01/2000,00:00:21.11,-44.92,-2.44,-971.19,4.07,-0.59,-0.12,27.15,-0.90,-21.90,23.29,03/25/2020,14:55:40.800,0,0,0,0,0,0,0,9999,9.958,
01/01/2000,00:00:21.21,-46.39,-8.30,-982.91,1.38,0.27,-1.76,24.0,-2.70,-20.55,23.05,03/25/2020,14:55:40.900,0,0,0,0,0,0,0,9999,9.958,
01/01/2000,00:00:21.31,-47.85,10.25,-970.21,-0.52,2.84,-2.95,25.20,-1.05,-23.55,23.05,03/25/2020,14:55:41.000,0,0,0,0,0,0,0,9999,9.958,
01/01/2000,00:00:21.41,-10.74,-21.00,-966.80,2.34,-0.95,1.75,25.35,-0.90,-22.65,23.05,03/25/2020,14:55:41.100,0,0,0,0,0,0,0,9999,9.959,
01/01/2000,00:00:21.51,-48.34,16.60,-979.98,3.88,-1.50,1.94,25.80,-0.45,-23.70,23.14,03/25/2020,14:55:41.200,0,0,0,0,0,0,0,9999,9.959,
01/01/2000,00:00:21.61,-40.04,0.0,-960.94,1.32,-0.15,3.82,22.95,-2.25,-19.20,22.90,03/25/2020,14:55:41.300,0,0,0,0,0,0,0,9999,9.964,
01/01/2000,00:00:21.71,-26.37,-4.39,-959.96,0.98,1.11,-3.47,24.90,-1.05,-20.10,23.29,03/25/2020,14:55:41.400,0,0,0,0,0,0,0,9999,9.964,
01/01/2000,00:00:21.81,-41.02,14.16,-976.07,1.46,-1.34,0.72,26.70,-2.10,-22.50,23.14,03/25/2020,14:55:41.500,0,0,0,0,0,0,0,9999,9.964,
01/01/2000,00:00:21.91,-47.85,3.91,-974.61,1.36,1.18,-0.40,26.70,-0.30,-23.10,23.14,03/25/2020,14:55:41.600,0,0,0,0,0,0,0,9999,9.965,
01/01/2000,00:00:22.01,-28.81,-10.74,-970.21,0.85,1.57,-1.60,23.25,-1.95,-20.25,23.29,03/25/2020,14:55:41.700,0,0,0,0,0,0,0,9999,9.965,
01/01/2000,00:00:22.11,-53.22,-7.81,-978.03,3.45,-1.99,1.76,27.0,-0.60,-23.55,23.29,03/25/2020,14:55:41.800,0,0,0,0,0,0,0,9999,9.965,
01/01/2000,00:00:22.21,-19.53,-17.09,-976.07,2.53,-1.46,-0.34,22.65,-0.15,-20.25,23.14,03/25/2020,14:55:41.900,0,0,0,0,0,0,0,9999,9.965,
01/01/2000,00:00:22.31,-55.18,17.09,-965.82,1.30,-0.73,-1.44,24.75,-2.25,-21.30,23.24,03/25/2020,14:55:42.000,0,0,0,0,0,0,0,9999,9.965,
01/01/2000,00:00:22.41,-33.20,-8.79,-984.38,2.20,2.89,-0.48,23.55,-2.55,-20.10,23.14,03/25/2020,14:55:42.100,0,0,0,0,0,0,0,9999,9.965,
01/01/2000,00:00:22.50,-35.16,-10.25,-971.68,0.82,1.78,-3.99,26.25,0.0,-22.50,23.09,03/25/2020,14:55:42.200,0,0,0,0,0,0,0,9999,9.966,
01/01/2000,00:00:22.60,-42.48,-2.44,-984.38,3.10,1.79,1.12,25.65,0.30,-23.10,23.09,03/25/2020,14:55:42.300,0,0,0,0,0,0,0,9999,9.966,
01/01/2000,00:00:22.70,-40.04,0.0,-972.17,1.43,0.69,4.37,24.0,-2.25,-20.55,23.14,03/25/2020,14:55:42.400,0,0,0,0,0,0,0,9999,9.966,
01/01/2000,00:00:22.80,-48.34,7.32,-972.17,2.18,-0.73,0.89,24.15,-2.55,-21.15,23.33,03/25/2020,14:55:42.500,0,0,0,0,0,0,0,9999,9.966,
01/01/2000,00:00:22.90,-46.39,7.32,-969.24,2.76,2.99,-0.92,25.35,-2.70,-20.85,23.29,03/25/2020,14:55:42.600,0,0,0,0,0,0,0,9999,9.966,
01/01/2000,00:00:23.00,-32.71,1.46,-968.26,2.97,-0.80,-0.24,25.35,-0.90,-24.0,23.09,03/25/2020,14:55:42.700,0,0,0,0,0,0,0,9999,9.966,
01/01/2000,00:00:23.10,-33.69,9.28,-982.42,2.0,-0.66,2.92,24.75,-1.20,-21.30,23.24,03/25/2020,14:55:42.800,0,0,0,0,0,0,0,9999,9.967,
01/01/2000,00:00:23.20,-21.00,-7.81,-958.50,2.15,-1.10,1.10,26.10,-1.20,-22.95,23.29,03/25/2020,14:55:42.900,0,0,0,0,0,0,0,9999,9.967,
01/01/2000,00:00:23.30,-31.74,2.93,-975.10,0.42,0.07,-3.0,25.35,-1.20,-23.40,23.43,03/25/2020,14:55:43.000,0,0,0,0,0,0,0,9999,9.958,
01/01/2000,00:00:23.41,-39.55,11.72,-972.66,0.77,-2.23,-1.69,25.95,-1.35,-23.10,23.24,03/25/2020,14:55:43.100,0,0,0,0,0,0,0,9999,9.962,
01/01/2000,00:00:23.51,-46.88,13.67,-963.87,-0.27,1.36,-4.47,26.10,-2.70,-21.60,23.33,03/25/2020,14:55:43.200,0,0,0,0,0,0,0,9999,9.963,
01/01/2000,00:00:23.61,-39.55,-9.28,-978.52,0.85,1.02,-1.80,25.35,-0.45,-22.65,23.24,03/25/2020,14:55:43.300,0,0,0,0,0,0,0,9999,9.963,
01/01/2000,00:00:23.71,-45.41,10.74,-959.96,4.50,0.62,0.89,25.20,-1.35,-23.55,23.14,03/25/2020,14:55:43.400,0,0,0,0,0,0,0,9999,9.963,
01/01/2000,00:00:23.81,-28.32,9.77,-979.98,0.11,1.89,-1.14,26.40,-0.15,-23.40,23.48,03/25/2020,14:55:43.500,0,0,0,0,0,0,0,9999,9.963,
01/01/2000,00:00:23.91,-39.06,-13.18,-964.36,2.44,1.80,-0.56,24.60,-1.05,-21.15,23.29,03/25/2020,14:55:43.600,0,0,0,0,0,0,0,9999,9.963,
01/01/2000,00:00:24.01,-36.13,-18.07,-957.52,1.45,2.63,-3.96,22.95,-2.25,-20.55,23.24,03/25/2020,14:55:43.700,0,0,0,0,0,0,0,9999,9.963,
01/01/2000,00:00:24.11,-34.67,0.49,-975.59,3.05,-0.51,-1.27,24.75,-2.25,-20.25,23.29,03/25/2020,14:55:43.800,0,0,0,0,0,0,0,9999,9.964,
01/01/2000,00:00:24.21,-39.55,-2.93,-958.50,0.92,-0.73,-0.85,24.90,-1.05,-23.55,23.24,03/25/2020,14:55:43.900,0,0,0,0,0,0,0,9999,9.964,
01/01/2000,00:00:24.31,-32.23,-10.74,-975.10,4.24,0.66,-0.10,25.80,-1.20,-20.55,23.29,03/25/2020,14:55:44.000,0,0,0,0,0,0,0,9999,9.964,
01/01/2000,00:00:24.41,-31.25,3.42,-962.89,3.82,-0.89,-1.27,26.40,-0.90,-23.70,23.57,03/25/2020,14:55:44.100,0,0,0,0,0,0,0,9999,9.964,
01/01/2000,00:00:24.51,-42.97,6.84,-969.24,3.19,0.09,1.13,25.35,-1.50,-24.0,23.57,03/25/2020,14:55:44.200,0,0,0,0,0,0,0,9999,9.964,
01/01/2000,00:00:24.61,-33.20,-8.30,-957.52,1.42,1.25,0.17,23.85,-2.10,-21.45,23.43,03/25/2020,14:55:44.300,0,0,0,0,0,0,0,9999,9.964,
01/01/2000,00:00:24.71,-38.57,-6.84,-964.84,0.13,1.73,0.73,24.60,-2.55,-20.40,23.43,03/25/2020,14:55:44.400,0,0,0,0,0,0,0,9999,9.969,
01/01/2000,00:00:24.81,-35.64,-4.39,-974.61,3.12,-0.83,0.54,26.10,-0.90,-22.65,23.24,03/25/2020,14:55:44.500,0,0,0,0,0,0,0,9999,9.969,
01/01/2000,00:00:24.91,-27.34,1.46,-958.98,2.89,-0.48,0.21,25.80,-1.20,-23.40,23.29,03/25/2020,14:55:44.600,0,0,0,0,0,0,0,9999,9.969,
01/01/2000,00:00:25.01,-34.67,-2.93,-971.68,1.34,-0.63,0.27,23.70,-2.25,-19.50,23.33,03/25/2020,14:55:44.800,0,0,0,0,0,0,0,9999,9.917,
01/01/2000,00:00:25.21,-56.15,18.55,-965.82,1.47,1.87,-3.30,24.15,-2.55,-18.60,23.14,03/25/2020,14:55:44.900,0,0,0,0,0,0,0,9999,9.922,
01/01/2000,00:00:25.31,-34.18,13.18,-971.19,2.59,-0.43,-0.45,24.0,-1.50,-21.60,23.33,03/25/2020,14:55:45.000,0,0,0,0,0,0,0,9999,9.927,
01/01/2000,00:00:25.41,-55.18,0.0,-973.63,0.19,2.29,-2.68,25.80,-1.35,-23.85,23.29,03/25/2020,14:55:45.100,0,0,0,0,0,0,0,9999,9.927,
01/01/2000,00:00:25.51,-44.92,0.49,-961.91,2.05,0.24,0.70,23.70,-1.20,-21.90,23.29,03/25/2020,14:55:45.200,0,0,0,0,0,0,0,9999,9.927,
01/01/2000,00:00:25.61,-49.80,8.30,-979.98,2.53,0.42,-2.66,24.90,0.0,-23.85,23.33,03/25/2020,14:55:45.300,0,0,0,0,0,0,0,9999,9.928,
01/01/2000,00:00:25.71,-39.06,-1.46,-964.36,3.34,-1.27,1.77,26.40,-0.45,-22.35,23.48,03/25/2020,14:55:45.400,0,0,0,0,0,0,0,9999,9.928,
01/01/2000,00:00:25.81,-34.18,-6.84,-973.63,2.53,0.77,1.96,23.25,-3.0,-19.50,23.57,03/25/2020,14:55:45.500,0,0,0,0,0,0,0,9999,9.928,
01/01/2000,00:00:25.91,-41.02,3.91,-958.50,4.18,0.07,1.50,24.90,-2.85,-21.15,23.33,03/25/2020,14:55:45.600,0,0,0,0,0,0,0,9999,9.928,
01/01/2000,00:00:26.01,-47.85,-0.98,-960.45,2.16,0.05,0.02,25.80,-0.90,-22.65,23.62,03/25/2020,14:55:45.700,0,0,0,0,0,0,0,9999,9.929,
01/01/2000,00:00:26.11,-42.48,10.25,-967.29,1.33,0.79,0.40,27.15,-0.45,-22.35,23.67,03/25/2020,14:55:45.800,0,0,0,0,0,0,0,9999,9.929,
01/01/2000,00:00:26.21,-37.60,-1.46,-966.31,1.85,1.85,-1.66,24.15,-2.10,-21.15,23.57,03/25/2020,14:55:45.900,0,0,0,0,0,0,0,9999,9.929,
01/01/2000,00:00:26.31,-45.41,4.88,-960.45,2.43,0.08,-0.17,25.95,-0.30,-21.75,23.43,03/25/2020,14:55:46.000,0,0,0,0,0,0,0,9999,9.930,
01/01/2000,00:00:26.40,-33.20,-14.16,-973.14,0.11,3.43,-0.28,24.30,-2.25,-20.25,23.57,03/25/2020,14:55:46.100,0,0,0,0,0,0,0,9999,9.930,
01/01/2000,00:00:26.50,-37.60,6.35,-972.17,0.77,1.94,-3.03,24.0,-1.50,-22.35,23.43,03/25/2020,14:55:46.200,0,0,0,0,0,0,0,9999,9.930,
01/01/2000,00:00:26.60,-39.06,4.88,-975.59,3.18,0.23,-1.27,23.55,-1.80,-21.45,23.57,03/25/2020,14:55:46.300,0,0,0,0,0,0,0,9999,9.931,
01/01/2000,00:00:26.70,-38.57,2.93,-958.98,1.28,-1.18,2.20,27.15,-0.45,-22.95,23.33,03/25/2020,14:55:46.400,0,0,0,0,0,0,0,9999,9.931,
01/01/2000,00:00:26.80,-42.48,11.72,-975.59,-0.52,1.82,-1.44,25.65,-1.05,-22.50,23.57,03/25/2020,14:55:46.500,0,0,0,0,0,0,0,9999,9.931,
01/01/2000,00:00:26.90,-48.83,8.79,-960.94,3.28,0.53,1.01,25.80,-0.45,-21.60,23.24,03/25/2020,14:55:46.600,0,0,0,0,0,0,0,9999,9.931,
01/01/2000,00:00:27.00,-36.62,11.72,-967.29,0.51,1.03,-0.31,24.75,-1.50,-21.30,23.57,03/25/2020,14:55:46.700,0,0,0,0,0,0,0,9999,9.932,
01/01/2000,00:00:27.10,-36.62,-5.86,-972.66,2.51,2.16,1.62,24.90,-1.35,-20.40,23.57,03/25/2020,14:55:46.800,0,0,0,0,0,0,0,9999,9.932,
01/01/2000,00:00:27.20,-41.02,-3.42,-972.66,2.15,-0.91,2.96,26.85,-0.15,-22.65,23.33,03/25/2020,14:55:46.900,0,0,0,0,0,0,0,9999,9.932,
01/01/2000,00:00:27.30,-41.99,8.30,-962.89,0.56,1.96,0.06,26.25,-0.60,-24.15,23.57,03/25/2020,14:55:47.000,0,0,0,0,0,0,0,9999,9.925,
01/01/2000,00:00:27.41,-33.20,6.35,-971.68,3.92,2.95,1.09,25.80,-0.45,-21.60,23.57,03/25/2020,14:55:47.100,0,0,0,0,0,0,0,9999,9.925,
01/01/2000,00:00:27.51,-45.41,-2.44,-967.29,2.63,0.28,-0.48,25.80,-2.25,-21.60,23.62,03/25/2020,14:55:47.200,0,0,0,0,0,0,0,9999,9.933,
01/01/2000,00:00:27.61,-34.18,-7.81,-982.91,3.11,-2.24,0.15,24.60,-1.35,-20.70,23.57,03/25/2020,14:55:47.300,0,0,0,0,0,0,0,9999,9.933,
01/01/2000,00:00:27.71,-54.20,20.51,-965.33,2.62,-0.09,-0.49,26.10,-0.90,-23.70,23.57,03/25/2020,14:55:47.400,0,0,0,0,0,0,0,9999,9.934,
01/01/2000,00:00:27.80,-46.88,15.14,-970.70,2.94,-1.81,1.34,24.30,-1.95,-20.85,23.48,03/25/2020,14:55:47.500,0,0,0,0,0,0,0,9999,9.934,
01/01/2000,00:00:27.90,-38.09,-9.77,-972.66,3.21,-1.69,-0.44,25.65,-1.05,-23.55,23.57,03/25/2020,14:55:47.600,0,0,0,0,0,0,0,9999,9.934,
01/01/2000,00:00:28.00,-38.57,1.95,-975.10,1.53,0.60,0.73,25.80,-0.15,-24.45,23.57,03/25/2020,14:55:47.700,0,0,0,0,0,0,0,9999,9.934,
01/01/2000,00:00:28.10,-49.32,0.98,-969.24,2.30,2.16,-1.80,25.80,-1.95,-21.60,23.62,03/25/2020,14:55:47.800,0,0,0,0,0,0,0,9999,9.935,
01/01/2000,00:00:28.20,-49.32,-3.91,-958.50,0.59,0.94,-0.18,23.85,-1.35,-20.70,23.57,03/25/2020,14:55:47.900,0,0,0,0,0,0,0,9999,9.935,
01/01/2000,00:00:28.30,-52.73,1.95,-963.38,0.67,0.11,-1.58,25.65,-1.05,-22.80,23.29,03/25/2020,14:55:48.000,0,0,0,0,0,0,0,9999,9.924,
01/01/2000,00:00:28.41,-45.41,-13.67,-963.38,-1.85,2.18,-1.18,26.25,-1.35,-23.10,23.81,03/25/2020,14:55:48.100,0,0,0,0,0,0,0,9999,9.935,
01/01/2000,00:00:28.51,-38.57,1.95,-973.63,2.92,0.13,-4.12,23.55,-1.05,-20.70,23.57,03/25/2020,14:55:48.200,0,0,0,0,0,0,0,9999,9.936,
01/01/2000,00:00:28.61,-41.50,-4.88,-969.24,-0.83,2.75,-2.56,25.95,-1.35,-22.50,23.81,03/25/2020,14:55:48.300,0,0,0,0,0,0,0,9999,9.936,
01/01/2000,00:00:28.71,-49.32,-0.49,-970.21,3.59,-0.05,1.27,24.90,-3.15,-19.65,23.67,03/25/2020,14:55:48.400,0,0,0,0,0,0,0,9999,9.936,
01/01/2000,00:00:28.81,-37.60,3.91,-963.38,1.21,-0.95,-1.76,23.55,-1.80,-19.65,23.62,03/25/2020,14:55:48.500,0,0,0,0,0,0,0,9999,9.936,
01/01/2000,00:00:28.91,-46.39,1.46,-962.89,2.74,-0.95,-0.98,24.75,-1.95,-20.85,23.62,03/25/2020,14:55:48.600,0,0,0,0,0,0,0,9999,9.936,
01/01/2000,00:00:29.01,-37.11,1.95,-975.10,4.50,0.61,0.61,25.80,-0.90,-22.65,23.67,03/25/2020,14:55:48.700,0,0,0,0,0,0,0,9999,9.937,
01/01/2000,00:00:29.10,-46.88,2.93,-980.47,0.50,1.75,-1.75,25.65,-1.05,-23.55,23.62,03/25/2020,14:55:48.800,0,0,0,0,0,0,0,9999,9.937,
01/01/2000,00:00:29.20,-34.18,6.35,-951.17,1.07,-1.42,-0.10,25.95,-1.20,-22.65,23.48,03/25/2020,14:55:48.900,0,0,0,0,0,0,0,9999,9.937,
01/01/2000,00:00:29.30,-45.90,2.44,-968.26,3.94,-0.21,0.50,26.25,-0.60,-22.50,23.76,03/25/2020,14:55:49.000,0,0,0,0,0,0,0,9999,9.937,
01/01/2000,00:00:29.40,-36.13,0.0,-969.24,1.97,3.27,-0.07,23.85,-0.60,-20.70,23.57,03/25/2020,14:55:49.100,0,0,0,0,0,0,0,9999,9.938,
01/01/2000,00:00:29.50,-37.11,4.88,-960.94,1.68,-1.09,1.76,27.15,-0.15,-22.35,23.62,03/25/2020,14:55:49.200,0,0,0,0,0,0,0,9999,9.938,
01/01/2000,00:00:29.60,-49.80,-0.49,-962.89,2.09,1.91,0.10,25.20,-0.60,-22.80,23.62,03/25/2020,14:55:49.300,0,0,0,0,0,0,0,9999,9.938,
01/01/2000,00:00:29.70,-44.92,-0.98,-965.82,0.67,0.73,-1.60,24.75,-2.25,-20.85,23.81,03/25/2020,14:55:49.400,0,0,0,0,0,0,0,9999,9.938,
01/01/2000,00:00:29.80,-37.60,-2.93,-967.77,1.48,0.53,0.41,25.95,-0.60,-22.20,23.57,03/25/2020,14:55:49.500,0,0,0,0,0,0,0,9999,9.939,
01/01/2000,00:00:29.90,-29.30,-9.77,-970.21,1.60,2.02,0.01,24.90,-2.10,-20.10,24.00,03/25/2020,14:55:49.600,0,0,0,0,0,0,0,9999,9.939,
01/01/2000,00:00:30.00,-34.67,-11.23,-975.10,0.45,-1.29,-1.21,24.30,-1.50,-21.30,23.33,03/25/2020,14:55:49.700,0,0,0,0,0,0,0,9999,9.939,
01/01/2000,00:00:30.10,-42.97,1.46,-974.61,2.81,-0.98,1.45,26.10,0.15,-22.35,23.81,03/25/2020,14:55:49.800,0,0,0,0,0,0,0,9999,9.939,
01/01/2000,00:00:30.20,-52.73,-3.42,-969.73,1.80,-2.34,1.27,26.40,0.15,-22.95,23.67,03/25/2020,14:55:49.900,0,0,0,0,0,0,0,9999,9.939,
01/01/2000,00:00:30.30,-49.80,-7.81,-974.12,1.43,-2.61,-5.11,26.40,-0.90,-22.65,23.86,03/25/2020,14:55:50.000,0,0,0,0,0,0,0,9999,9.933,
01/01/2000,00:00:30.41,-62.50,21.97,-964.36,3.89,1.31,-1.44,26.70,-1.05,-22.20,23.57,03/25/2020,14:55:50.100,0,0,0,0,0,0,0,9999,9.936,
01/01/2000,00:00:30.51,-44.43,0.0,-947.27,1.98,0.56,-2.27,23.85,-2.10,-19.65,23.62,03/25/2020,14:55:50.200,0,0,0,0,0,0,0,9999,9.937,
01/01/2000,00:00:30.61,-32.71,-3.42,-976.07,2.54,1.92,1.47,25.65,-0.60,-22.20,23.76,03/25/2020,14:55:50.300,0,0,0,0,0,0,0,9999,9.937,
01/01/2000,00:00:30.71,-31.25,11.72,-968.26,3.07,-1.46,-1.85,25.95,-1.05,-24.15,23.67,03/25/2020,14:55:50.400,0,0,0,0,0,0,0,9999,9.937,
01/01/2000,00:00:30.81,-38.57,5.86,-970.21,3.09,-1.01,3.93,24.75,-1.50,-20.55,23.81,03/25/2020,14:55:50.500,0,0,0,0,0,0,0,9999,9.937,
01/01/2000,00:00:30.91,-27.83,4.39,-979.00,2.93,-0.69,-1.59,25.80,-0.45,-23.70,23.76,03/25/2020,14:55:50.600,0,0,0,0,0,0,0,9999,9.937,
01/01/2000,00:00:31.01,-37.60,0.49,-958.01,2.66,-0.30,1.95,24.0,-1.20,-21.60,23.81,03/25/2020,14:55:50.700,0,0,0,0,0,0,0,9999,9.938,
01/01/2000,00:00:31.11,-49.80,-7.32,-965.33,-0.15,2.87,-2.85,24.60,-1.80,-21.15,23.67,03/25/2020,14:55:50.800,0,0,0,0,0,0,0,9999,9.938,
01/01/2000,00:00:31.21,-50.29,6.35,-973.63,4.21,-1.86,0.73,24.0,-2.70,-20.85,23.76,03/25/2020,14:55:50.900,0,0,0,0,0,0,0,9999,9.938,
01/01/2000,00:00:31.31,-32.23,0.49,-962.89,1.35,0.18,-0.14,25.80,-0.15,-21.60,23.96,03/25/2020,14:55:51.000,0,0,0,0,0,0,0,9999,9.938,
01/01/2000,00:00:31.41,-45.90,-0.98,-963.38,4.11,0.97,0.75,26.85,-0.15,-22.65,23.86,03/25/2020,14:55:51.100,0,0,0,0,0,0,0,9999,9.939,
01/01/2000,00:00:31.51,-41.50,1.46,-973.63,2.27,1.45,0.88,24.75,-1.95,-21.30,23.96,03/25/2020,14:55:51.200,0,0,0,0,0,0,0,9999,9.939,
01/01/2000,00:00:31.61,-36.13,-3.42,-944.82,-1.15,1.79,-0.53,23.10,-2.85,-20.70,23.76,03/25/2020,14:55:51.300,0,0,0,0,0,0,0,9999,9.939,
01/01/2000,00:00:31.71,-31.25,-4.88,-969.24,1.85,-0.73,1.96,25.35,-1.95,-19.80,23.57,03/25/2020,14:55:51.400,0,0,0,0,0,0,0,9999,9.943,
01/01/2000,00:00:31.81,-30.76,-2.93,-968.26,3.71,0.69,2.08,26.25,-0.60,-22.50,23.62,03/25/2020,14:55:51.500,0,0,0,0,0,0,0,9999,9.939,
01/01/2000,00:00:31.91,-34.67,7.81,-955.57,-0.46,0.21,-1.83,24.15,-2.10,-21.15,23.81,03/25/2020,14:55:51.600,0,0,0,0,0,0,0,9999,9.940,
01/01/2000,00:00:32.01,-43.95,-6.84,-966.31,2.31,0.12,-2.62,26.10,-1.50,-22.65,23.86,03/25/2020,14:55:51.700,0,0,0,0,0,0,0,9999,9.943,
01/01/2000,00:00:32.11,-53.71,-5.37,-989.75,3.82,-0.06,-3.85,26.85,-0.15,-22.95,23.96,03/25/2020,14:55:51.800,0,0,0,0,0,0,0,9999,9.943,
01/01/2000,00:00:32.21,-41.50,-27.34,-964.84,1.15,1.61,-0.15,24.75,-1.50,-20.55,23.81,03/25/2020,14:55:51.900,0,0,0,0,0,0,0,9999,9.943,
01/01/2000,00:00:32.31,-50.78,2.44,-972.66,3.61,-0.56,0.40,24.30,-3.0,-19.50,23.86,03/25/2020,14:55:52.000,0,0,0,0,0,0,0,9999,9.944,
01/01/2000,00:00:32.41,-27.34,-17.58,-963.38,2.45,0.24,1.27,27.15,-1.20,-24.0,23.86,03/25/2020,14:55:52.100,0,0,0,0,0,0,0,9999,9.944,
01/01/2000,00:00:32.51,-45.41,0.0,-963.87,3.78,-1.60,4.26,24.30,0.15,-21.90,23.86,03/25/2020,14:55:52.200,0,0,0,0,0,0,0,9999,9.944,
01/01/2000,00:00:32.61,-32.71,3.91,-955.57,2.34,0.95,0.25,25.05,-1.20,-21.90,23.62,03/25/2020,14:55:52.300,0,0,0,0,0,0,0,9999,9.944,
01/01/2000,00:00:32.71,-22.95,3.42,-968.75,0.66,1.56,-1.21,25.35,-2.25,-21.60,23.86,03/25/2020,14:55:52.400,0,0,0,0,0,0,0,9999,9.944,
01/01/2000,00:00:32.81,-45.41,12.70,-977.54,3.33,-1.31,0.35,24.90,-2.55,-20.70,23.62,03/25/2020,14:55:52.500,0,0,0,0,0,0,0,9999,9.945,
01/01/2000,00:00:32.91,-32.23,-1.95,-967.77,0.92,-1.14,-0.63,24.75,-2.70,-21.30,24.00,03/25/2020,14:55:52.600,0,0,0,0,0,0,0,9999,9.945,
01/01/2000,00:00:33.00,-22.95,-22.95,-976.07,2.89,0.20,-2.89,26.40,-0.15,-22.95,23.76,03/25/2020,14:55:52.700,0,0,0,0,0,0,0,9999,9.945,
01/01/2000,00:00:33.10,-20.02,2.44,-948.73,1.56,-1.44,-1.27,24.15,-1.35,-21.45,23.81,03/25/2020,14:55:52.800,0,0,0,0,0,0,0,9999,9.945,
01/01/2000,00:00:33.20,-48.34,-5.37,-968.26,0.79,1.93,-2.90,26.25,-1.80,-23.55,23.81,03/25/2020,14:55:52.900,0,0,0,0,0,0,0,9999,9.945,
01/01/2000,00:00:33.30,-39.55,5.86,-972.66,2.33,0.85,-1.72,26.25,-1.05,-23.10,23.81,03/25/2020,14:55:53.000,0,0,0,0,0,0,0,9999,9.936,
01/01/2000,00:00:33.42,-46.39,20.02,-968.26,2.81,-0.75,1.94,25.05,-1.20,-23.40,23.96,03/25/2020,14:55:53.100,0,0,0,0,0,0,0,9999,9.939,
01/01/2000,00:00:33.52,-32.71,14.65,-958.01,3.88,-0.41,1.78,24.60,-1.80,-21.75,23.81,03/25/2020,14:55:53.200,0,0,0,0,0,0,0,9999,9.939,
01/01/2000,00:00:33.62,-53.71,2.93,-978.03,1.32,-0.15,-0.60,26.70,-1.05,-23.10,23.76,03/25/2020,14:55:53.300,0,0,0,0,0,0,0,9999,9.940,
01/01/2000,00:00:33.72,-47.36,10.74,-969.24,2.63,0.53,0.06,25.05,-0.90,-23.40,24.10,03/25/2020,14:55:53.400,0,0,0,0,0,0,0,9999,9.940,
01/01/2000,00:00:33.82,-34.18,9.77,-967.77,4.25,-1.44,2.40,24.60,-1.35,-20.40,23.67,03/25/2020,14:55:53.500,0,0,0,0,0,0,0,9999,9.940,
01/01/2000,00:00:33.92,-29.30,0.98,-960.45,1.66,1.05,1.37,25.05,-1.50,-22.95,23.76,03/25/2020,14:55:53.600,0,0,0,0,0,0,0,9999,9.943,
01/01/2000,00:00:34.02,-25.39,3.42,-973.14,2.34,-0.13,0.22,22.95,-2.25,-20.85,24.00,03/25/2020,14:55:53.700,0,0,0,0,0,0,0,9999,9.944,
01/01/2000,00:00:34.12,-37.60,1.46,-961.91,3.73,0.41,1.01,24.60,-1.80,-20.40,23.96,03/25/2020,14:55:53.800,0,0,0,0,0,0,0,9999,9.944,
01/01/2000,00:00:34.22,-29.79,-1.95,-968.75,3.34,-0.97,1.02,24.75,-1.50,-20.25,23.76,03/25/2020,14:55:53.900,0,0,0,0,0,0,0,9999,9.941,
01/01/2000,00:00:34.32,-45.90,-4.88,-961.43,1.19,-2.79,-1.28,25.95,-1.05,-22.80,23.81,03/25/2020,14:55:54.000,0,0,0,0,0,0,0,9999,9.944,
01/01/2000,00:00:34.42,-34.67,-11.23,-966.80,0.57,-0.51,-1.31,26.70,-1.35,-22.20,24.00,03/25/2020,14:55:54.100,0,0,0,0,0,0,0,9999,9.944,
01/01/2000,00:00:34.52,-35.16,3.91,-973.14,1.59,-0.89,-0.62,26.85,-1.20,-22.35,23.81,03/25/2020,14:55:54.200,0,0,0,0,0,0,0,9999,9.944,
01/01/2000,00:00:34.62,-35.64,-3.91,-962.89,3.94,-0.55,0.05,24.75,-2.25,-21.60,23.86,03/25/2020,14:55:54.300,0,0,0,0,0,0,0,9999,9.945,
01/01/2000,00:00:34.72,-42.97,-6.84,-976.07,3.52,1.02,-1.04,25.05,-1.50,-20.55,23.81,03/25/2020,14:55:54.400,0,0,0,0,0,0,0,9999,9.945,
01/01/2000,00:00:34.82,-39.55,6.35,-961.43,-0.53,0.53,-2.12,25.35,-0.90,-21.90,23.76,03/25/2020,14:55:54.500,0,0,0,0,0,0,0,9999,9.945,
01/01/2000,00:00:34.92,-46.88,5.86,-968.26,2.77,1.93,0.31,25.05,-3.45,-20.85,24.20,03/25/2020,14:55:54.600,0,0,0,0,0,0,0,9999,9.945,
01/01/2000,00:00:35.02,-39.06,5.37,-966.80,2.38,-0.53,-0.63,25.80,-1.20,-23.40,23.96,03/25/2020,14:55:54.700,0,0,0,0,0,0,0,9999,9.945,
01/01/2000,00:00:35.11,-34.67,-0.49,-966.31,3.23,0.0,0.58,25.65,-0.30,-22.80,24.00,03/25/2020,14:55:54.800,0,0,0,0,0,0,0,9999,9.945,
01/01/2000,00:00:35.21,-40.53,12.21,-974.12,3.69,-1.18,-1.40,24.15,-1.35,-20.40,24.15,03/25/2020,14:55:54.900,0,0,0,0,0,0,0,9999,9.946,
01/01/2000,00:00:35.31,-48.83,-0.49,-967.77,0.90,1.10,-3.47,27.0,-2.10,-22.20,23.57,03/25/2020,14:55:55.000,0,0,0,0,0,0,0,9999,9.946,
01/01/2000,00:00:35.41,-32.71,4.39,-971.68,-0.01,0.21,1.53,26.10,-1.95,-23.70,23.81,03/25/2020,14:55:55.100,0,0,0,0,0,0,0,9999,9.946,
01/01/2000,00:00:35.51,-48.34,0.98,-967.29,3.51,0.90,0.57,26.10,-0.90,-23.40,24.00,03/25/2020,14:55:55.200,0,0,0,0,0,0,0,9999,9.946,
01/01/2000,00:00:35.61,-40.53,1.95,-977.54,2.58,0.17,-3.66,25.65,-1.35,-23.10,23.76,03/25/2020,14:55:55.300,0,0,0,0,0,0,0,9999,9.946,
01/01/2000,00:00:35.71,-34.18,3.42,-960.45,2.84,0.02,-3.11,24.90,-2.10,-20.40,23.81,03/25/2020,14:55:55.400,0,0,0,0,0,0,0,9999,9.946,
01/01/2000,00:00:35.81,-45.90,-2.44,-953.61,3.06,-0.72,0.68,23.25,-2.70,-19.20,23.76,03/25/2020,14:55:55.500,0,0,0,0,0,0,0,9999,9.947,
01/01/2000,00:00:35.91,-32.23,1.46,-970.70,0.89,0.37,-3.52,24.15,-2.55,-20.70,24.10,03/25/2020,14:55:55.600,0,0,0,0,0,0,0,9999,9.947,
01/01/2000,00:00:36.01,-42.97,4.88,-965.82,1.02,-0.41,-0.92,25.35,-0.15,-21.90,24.10,03/25/2020,14:55:55.700,0,0,0,0,0,0,0,9999,9.947,
01/01/2000,00:00:36.11,-36.13,-3.91,-965.33,0.72,-1.53,-3.09,25.35,-1.95,-20.25,24.20,03/25/2020,14:55:55.800,0,0,0,0,0,0,0,9999,9.947,
01/01/2000,00:00:36.21,-36.62,0.0,-964.36,0.24,-0.39,1.08,26.85,-1.20,-22.65,24.15,03/25/2020,14:55:55.900,0,0,0,0,0,0,0,9999,9.947,
01/01/2000,00:00:36.31,-33.69,-1.46,-971.19,2.71,-0.66,1.11,26.10,-0.15,-22.35,23.81,03/25/2020,14:55:56.000,0,0,0,0,0,0,0,9999,9.947,
01/01/2000,00:00:36.41,-51.27,-16.11,-954.10,5.05,0.09,3.99,23.25,-1.50,-18.90,24.10,03/25/2020,14:55:56.100,0,0,0,0,0,0,0,9999,9.947,
01/01/2000,00:00:36.51,-35.16,-8.79,-963.38,0.86,-0.04,-2.82,24.60,-2.10,-20.10,23.96,03/25/2020,14:55:56.200,0,0,0,0,0,0,0,9999,9.948,
01/01/2000,00:00:36.61,-39.06,-15.14,-974.12,0.32,1.44,3.54,25.05,-0.90,-22.65,24.00,03/25/2020,14:55:56.300,0,0,0,0,0,0,0,9999,9.948,
01/01/2000,00:00:36.71,-27.34,1.46,-963.38,3.28,0.23,0.01,26.85,-0.15,-24.45,24.10,03/25/2020,14:55:56.400,0,0,0,0,0,0,0,9999,9.948,
01/01/2000,00:00:36.81,-43.46,-0.49,-971.68,2.09,0.44,3.38,24.75,-1.95,-20.85,24.29,03/25/2020,14:55:56.500,0,0,0,0,0,0,0,9999,9.948,
01/01/2000,00:00:36.91,-40.04,7.81,-953.13,2.08,0.20,4.97,26.70,-1.35,-22.80,24.15,03/25/2020,14:55:56.600,0,0,0,0,0,0,0,9999,9.948,
01/01/2000,00:00:37.01,-30.76,1.95,-971.68,4.48,0.20,-0.01,24.15,-3.15,-20.40,24.00,03/25/2020,14:55:56.700,0,0,0,0,0,0,0,9999,9.948,
01/01/2000,00:00:37.11,-37.11,5.37,-962.89,0.68,-0.18,1.09,24.15,-1.35,-19.80,24.15,03/25/2020,14:55:56.800,0,0,0,0,0,0,0,9999,9.949,
01/01/2000,00:00:37.21,-40.53,-0.49,-966.80,1.13,-1.60,1.34,26.10,-0.45,-22.65,23.86,03/25/2020,14:55:56.900,0,0,0,0,0,0,0,9999,9.949,
01/01/2000,00:00:37.31,-43.95,-6.35,-954.10,1.40,1.33,0.05,25.35,-0.45,-22.35,24.00,03/25/2020,14:55:57.000,0,0,0,0,0,0,0,9999,9.949,
01/01/2000,00:00:37.41,-49.32,-10.74,-966.80,4.91,-2.60,1.77,27.0,-1.05,-22.20,24.20,03/25/2020,14:55:57.100,0,0,0,0,0,0,0,9999,9.952,
01/01/2000,00:00:37.51,-37.60,-9.77,-983.40,1.87,0.11,-4.03,26.40,-1.95,-22.65,23.81,03/25/2020,14:55:57.200,0,0,0,0,0,0,0,9999,9.952,
01/01/2000,00:00:37.61,-33.69,-2.44,-968.75,0.15,0.91,-1.11,22.95,-2.25,-17.85,24.10,03/25/2020,14:55:57.300,0,0,0,0,0,0,0,9999,9.952,
01/01/2000,00:00:37.71,-47.36,-2.44,-971.19,2.65,1.56,-1.08,24.30,-1.20,-22.35,23.86,03/25/2020,14:55:57.400,0,0,0,0,0,0,0,9999,9.952,
01/01/2000,00:00:37.81,-34.18,-5.86,-958.50,3.29,-0.56,1.82,26.85,-1.20,-22.35,23.81,03/25/2020,14:55:57.500,0,0,0,0,0,0,0,9999,9.952,
01/01/2000,00:00:37.91,-32.23,10.74,-964.84,2.02,0.54,-2.14,25.20,-0.30,-23.55,24.10,03/25/2020,14:55:57.600,0,0,0,0,0,0,0,9999,9.952,
01/01/2000,00:00:38.01,-28.81,14.65,-971.68,1.31,0.89,-1.26,24.30,-3.0,-20.85,24.29,03/25/2020,14:55:57.700,0,0,0,0,0,0,0,9999,9.953,
01/01/2000,00:00:38.11,-43.46,3.91,-969.73,2.19,1.60,-1.21,25.80,-0.15,-21.60,24.20,03/25/2020,14:55:57.800,0,0,0,0,0,0,0,9999,9.953,
01/01/2000,00:00:38.21,-44.92,-0.49,-970.21,0.79,1.39,-2.29,22.95,-1.50,-19.80,23.86,03/25/2020,14:55:57.900,0,0,0,0,0,0,0,9999,9.953,
01/01/2000,00:00:38.31,-34.67,5.86,-969.24,2.44,0.96,1.52,23.85,-2.10,-21.75,24.29,03/25/2020,14:55:58.000,0,0,0,0,0,0,0,9999,9.953,
01/01/2000,00:00:38.41,-39.55,-10.25,-972.17,4.16,-1.59,0.69,26.40,0.15,-22.95,24.10,03/25/2020,14:55:58.100,0,0,0,0,0,0,0,9999,9.953,
01/01/2000,00:00:38.50,-41.02,-8.30,-971.19,3.40,-0.62,0.20,27.0,0.30,-23.10,23.96,03/25/2020,14:55:58.200,0,0,0,0,0,0,0,9999,9.953,
01/01/2000,00:00:38.60,-41.99,-5.86,-972.17,4.08,1.06,0.02,26.10,-1.95,-22.35,24.20,03/25/2020,14:55:58.300,0,0,0,0,0,0,0,9999,9.953,
01/01/2000,00:00:38.70,-40.53,-6.35,-953.61,1.66,-0.34,-2.56,23.85,-2.85,-19.65,24.29,03/25/2020,14:55:58.400,0,0,0,0,0,0,0,9999,9.954,
01/01/2000,00:00:38.80,-47.36,-10.25,-954.59,3.89,-0.88,2.89,23.25,-1.50,-20.25,24.10,03/25/2020,14:55:58.500,0,0,0,0,0,0,0,9999,9.954,
01/01/2000,00:00:38.90,-41.02,-10.25,-985.35,0.51,0.63,-1.09,24.30,-1.95,-21.30,23.96,03/25/2020,14:55:58.600,0,0,0,0,0,0,0,9999,9.954,
01/01/2000,00:00:39.00,-45.41,-3.42,-963.87,4.77,0.60,-1.26,26.10,-1.50,-23.40,23.86,03/25/2020,14:55:58.700,0,0,0,0,0,0,0,9999,9.954,
01/01/2000,00:00:39.10,-41.02,-2.93,-976.56,0.50,0.24,-0.79,24.15,-1.80,-20.70,24.20,03/25/2020,14:55:58.800,0,0,0,0,0,0,0,9999,9.954,
01/01/2000,00:00:39.20,-29.30,-3.42,-979.00,0.38,-1.46,-1.50,25.65,0.60,-22.20,23.86,03/25/2020,14:55:58.900,0,0,0,0,0,0,0,9999,9.954,
01/01/2000,00:00:39.30,-34.67,-12.70,-966.31,2.15,-2.08,2.05,26.40,-0.45,-22.65,24.34,03/25/2020,14:55:59.000,0,0,0,0,0,0,0,9999,9.946,
01/01/2000,00:00:39.41,-30.27,9.77,-966.80,2.75,-1.92,0.58,26.40,-0.15,-22.35,24.00,03/25/2020,14:55:59.100,0,0,0,0,0,0,0,9999,9.952,
01/01/2000,00:00:39.51,-44.43,6.84,-967.77,3.52,-0.76,2.31,24.75,-1.20,-19.80,23.86,03/25/2020,14:55:59.200,0,0,0,0,0,0,0,9999,9.952,
01/01/2000,00:00:39.61,-50.29,1.95,-976.07,1.40,2.26,0.97,27.15,-0.90,-24.0,24.15,03/25/2020,14:55:59.300,0,0,0,0,0,0,0,9999,9.952,
01/01/2000,00:00:39.71,-39.55,-2.93,-955.08,0.69,1.09,-0.26,25.95,-1.35,-21.45,24.20,03/25/2020,14:55:59.400,0,0,0,0,0,0,0,9999,9.952,
01/01/2000,00:00:39.81,-39.55,5.86,-974.61,1.19,0.60,1.79,26.25,-1.05,-22.80,23.76,03/25/2020,14:55:59.500,0,0,0,0,0,0,0,9999,9.952,
01/01/2000,00:00:39.91,-43.95,10.25,-977.54,1.21,-0.59,-0.30,23.70,-0.90,-20.55,24.10,03/25/2020,14:55:59.600,0,0,0,0,0,0,0,9999,9.952,
01/01/2000,00:00:40.01,-36.13,-0.49,-964.84,2.73,1.56,-3.40,24.60,-2.10,-20.40,24.34,03/25/2020,14:55:59.700,0,0,0,0,0,0,0,9999,9.952,
01/01/2000,00:00:40.11,-40.53,-1.46,-970.70,4.67,-0.21,2.25,23.10,-1.35,-19.65,24.29,03/25/2020,14:55:59.800,0,0,0,0,0,0,0,9999,9.953,
01/01/2000,00:00:40.21,-31.25,4.39,-971.19,1.93,2.37,-2.22,22.50,-1.80,-19.65,24.00,03/25/2020,14:55:59.900,0,0,0,0,0,0,0,9999,9.953,
01/01/2000,00:00:40.31,-36.13,-3.91,-980.47,0.37,1.82,-0.22,26.25,0.0,-24.60,24.15,03/25/2020,14:56:00.000,0,0,0,0,0,0,0,9999,9.953,
01/01/2000,00:00:40.41,-41.99,-3.42,-977.54,3.53,0.49,0.95,27.0,-1.05,-23.10,24.29,03/25/2020,14:56:00.100,0,0,0,0,0,0,0,9999,9.953,
01/01/2000,00:00:40.51,-44.92,8.30,-954.10,1.47,1.56,0.04,24.60,-0.60,-22.20,24.15,03/25/2020,14:56:00.200,0,0,0,0,0,0,0,9999,9.953,
01/01/2000,00:00:40.61,-28.32,7.81,-966.31,2.72,0.85,0.95,23.55,-1.80,-20.70,24.10,03/25/2020,14:56:00.300,0,0,0,0,0,0,0,9999,9.953,
01/01/2000,00:00:40.71,-51.27,-6.35,-963.38,2.04,3.10,0.92,23.70,-2.70,-20.55,24.34,03/25/2020,14:56:00.400,0,0,0,0,0,0,0,9999,9.953,
01/01/2000,00:00:40.81,-36.62,-7.81,-968.26,1.38,1.29,1.57,25.05,-1.20,-22.35,24.29,03/25/2020,14:56:00.500,0,0,0,0,0,0,0,9999,9.953,
01/01/2000,00:00:40.91,-42.48,-1.95,-975.10,3.36,-1.76,0.53,25.65,-1.35,-22.20,24.29,03/25/2020,14:56:00.600,0,0,0,0,0,0,0,9999,9.954,
01/01/2000,00:00:41.01,-49.32,-8.30,-983.40,1.63,-0.07,1.22,23.70,-1.95,-21.60,24.29,03/25/2020,14:56:00.700,0,0,0,0,0,0,0,9999,9.954,
01/01/2000,00:00:41.11,-52.25,-11.23,-952.64,3.17,1.70,0.38,26.25,-0.60,-23.55,24.48,03/25/2020,14:56:00.800,0,0,0,0,0,0,0,9999,9.956,
01/01/2000,00:00:41.21,-44.92,-6.35,-967.29,3.24,-0.66,-0.27,22.80,-2.85,-19.05,24.10,03/25/2020,14:56:00.900,0,0,0,0,0,0,0,9999,9.956,
01/01/2000,00:00:41.31,-45.90,4.88,-970.21,0.18,0.37,-2.55,24.60,-0.60,-21.45,24.10,03/25/2020,14:56:01.000,0,0,0,0,0,0,0,9999,9.957,
01/01/2000,00:00:41.41,-32.23,10.25,-964.84,2.98,-2.03,2.16,25.65,-0.30,-22.20,23.96,03/25/2020,14:56:01.100,0,0,0,0,0,0,0,9999,9.957,
01/01/2000,00:00:41.51,-47.36,-12.70,-966.31,0.59,-0.09,2.59,26.25,-1.05,-22.80,24.39,03/25/2020,14:56:01.200,0,0,0,0,0,0,0,9999,9.957,
01/01/2000,00:00:41.61,-35.64,-10.25,-969.73,2.08,0.87,-0.10,25.20,-1.35,-24.60,24.34,03/25/2020,14:56:01.300,0,0,0,0,0,0,0,9999,9.957,
01/01/2000,00:00:41.71,-48.83,2.93,-966.31,1.36,-0.45,-0.53,24.60,-1.35,-20.70,24.39,03/25/2020,14:56:01.400,0,0,0,0,0,0,0,9999,9.957,
01/01/2000,00:00:41.81,-37.60,3.42,-964.84,-1.73,-1.12,-0.60,24.90,-1.05,-20.70,24.20,03/25/2020,14:56:01.500,0,0,0,0,0,0,0,9999,9.957,
01/01/2000,00:00:41.91,-47.85,-3.91,-971.68,2.26,-3.22,2.18,25.05,-2.25,-20.25,24.00,03/25/2020,14:56:01.600,0,0,0,0,0,0,0,9999,9.957,
01/01/2000,00:00:42.01,-34.67,6.84,-969.73,5.14,-1.28,2.60,24.90,-0.60,-23.85,24.29,03/25/2020,14:56:01.700,0,0,0,0,0,0,0,9999,9.957,
01/01/2000,00:00:42.11,-41.50,0.0,-964.84,2.42,1.20,0.56,24.60,-3.15,-20.40,24.10,03/25/2020,14:56:01.800,0,0,0,0,0,0,0,9999,9.957,
01/01/2000,00:00:42.21,-33.69,-7.81,-969.73,2.56,-0.14,0.86,26.25,-1.80,-22.80,24.39,03/25/2020,14:56:01.900,0,0,0,0,0,0,0,9999,9.958,
01/01/2000,00:00:42.30,-28.32,0.49,-975.59,2.02,-0.59,-1.75,24.90,-0.30,-23.10,24.34,03/25/2020,14:56:02.000,0,0,0,0,0,0,0,9999,9.950,
01/01/2000,00:00:42.41,-31.74,-2.93,-970.21,4.07,-1.65,-0.53,24.75,-0.90,-21.90,24.29,03/25/2020,14:56:02.100,0,0,0,0,0,0,0,9999,9.955,
01/01/2000,00:00:42.51,-47.36,-14.65,-965.82,0.72,1.20,-1.49,24.15,-2.85,-19.65,24.20,03/25/2020,14:56:02.200,0,0,0,0,0,0,0,9999,9.955,
01/01/2000,00:00:42.61,-33.69,11.23,-963.87,0.38,1.95,-3.55,27.0,-0.30,-23.10,24.34,03/25/2020,14:56:02.300,0,0,0,0,0,0,0,9999,9.956,
01/01/2000,00:00:42.71,-39.06,-9.77,-970.21,3.40,0.09,2.01,27.45,-1.20,-22.95,24.20,03/25/2020,14:56:02.400,0,0,0,0,0,0,0,9999,9.956,
01/01/2000,00:00:42.81,-44.43,10.74,-979.49,-2.11,1.28,0.41,24.60,-1.05,-22.50,24.34,03/25/2020,14:56:02.500,0,0,0,0,0,0,0,9999,9.956,
01/01/2000,00:00:42.91,-37.60,7.32,-958.98,3.78,1.56,3.93,23.70,-1.95,-20.25,24.29,03/25/2020,14:56:02.600,0,0,0,0,0,0,0,9999,9.956,
01/01/2000,00:00:43.01,-26.86,7.81,-971.68,0.73,0.05,1.66,23.70,-1.95,-20.55,24.29,03/25/2020,14:56:02.700,0,0,0,0,0,0,0,9999,9.956,
01/01/2000,00:00:43.11,-47.36,6.35,-966.31,1.38,-0.02,0.82,25.35,-2.25,-20.25,24.39,03/25/2020,14:56:02.800,0,0,0,0,0,0,0,9999,9.956,
01/01/2000,00:00:43.21,-41.02,-12.21,-969.73,3.47,-0.45,-1.38,26.10,0.90,-22.65,24.39,03/25/2020,14:56:02.900,0,0,0,0,0,0,0,9999,9.956,
01/01/2000,00:00:43.31,-40.04,6.35,-972.66,2.44,-0.18,2.95,25.35,-3.0,-21.30,24.39,03/25/2020,14:56:03.000,0,0,0,0,0,0,0,9999,9.956,
01/01/2000,00:00:43.41,-39.55,0.98,-964.36,0.79,0.51,1.27,25.05,-1.95,-23.70,24.48,03/25/2020,14:56:03.100,0,0,0,0,0,0,0,9999,9.956,
01/01/2000,00:00:43.51,-36.13,13.67,-974.61,1.67,0.75,1.74,26.25,0.0,-22.20,24.53,03/25/2020,14:56:03.200,0,0,0,0,0,0,0,9999,9.957,
01/01/2000,00:00:43.61,-45.41,-7.32,-966.80,3.08,-2.10,0.12,24.0,-3.75,-18.45,24.10,03/25/2020,14:56:03.300,0,0,0,0,0,0,0,9999,9.957,
01/01/2000,00:00:43.71,-31.74,1.95,-962.89,1.50,0.82,0.83,24.90,-1.80,-21.45,24.48,03/25/2020,14:56:03.400,0,0,0,0,0,0,0,9999,9.957,
01/01/2000,00:00:43.81,-33.20,1.46,-975.10,1.0,1.40,-2.99,26.10,-0.45,-22.35,24.53,03/25/2020,14:56:03.500,0,0,0,0,0,0,0,9999,9.957,
01/01/2000,00:00:43.91,-23.44,-1.46,-956.05,4.42,-0.62,1.15,26.40,-1.20,-23.40,24.48,03/25/2020,14:56:03.600,0,0,0,0,0,0,0,9999,9.957,
01/01/2000,00:00:44.01,-30.76,4.39,-960.94,2.89,1.24,-1.47,23.70,-1.20,-20.85,24.63,03/25/2020,14:56:03.700,0,0,0,0,0,0,0,9999,9.957,
01/01/2000,00:00:44.11,-36.62,-6.84,-965.33,4.77,-0.02,2.96,25.95,-1.35,-23.85,24.39,03/25/2020,14:56:03.800,0,0,0,0,0,0,0,9999,9.957,
01/01/2000,00:00:44.21,-32.71,-1.95,-986.33,2.85,0.75,-0.05,23.25,-1.50,-20.25,24.39,03/25/2020,14:56:03.900,0,0,0,0,0,0,0,9999,9.957,
01/01/2000,00:00:44.31,-49.32,2.44,-959.47,1.24,1.29,1.91,25.65,-1.05,-20.10,24.39,03/25/2020,14:56:04.000,0,0,0,0,0,0,0,9999,9.957,
01/01/2000,00:00:44.41,-30.76,-0.98,-963.38,0.21,1.33,-1.54,25.20,-2.10,-20.40,24.20,03/25/2020,14:56:04.100,0,0,0,0,0,0,0,9999,9.957,
01/01/2000,00:00:44.51,-41.50,-7.32,-969.73,-0.81,-1.13,-2.14,26.25,-2.10,-22.50,24.53,03/25/2020,14:56:04.200,0,0,0,0,0,0,0,9999,9.960,
01/01/2000,00:00:44.61,-49.32,1.46,-975.10,5.15,-1.27,2.57,25.05,-1.20,-22.65,24.15,03/25/2020,14:56:04.300,0,0,0,0,0,0,0,9999,9.960,
01/01/2000,00:00:44.71,-29.79,-0.49,-970.21,1.03,0.69,-0.41,25.65,-1.35,-21.45,24.48,03/25/2020,14:56:04.400,0,0,0,0,0,0,0,9999,9.960,
01/01/2000,00:00:44.81,-51.27,6.35,-974.12,4.24,1.75,1.30,23.10,-1.80,-20.10,24.29,03/25/2020,14:56:04.500,0,0,0,0,0,0,0,9999,9.958,
01/01/2000,00:00:44.91,-51.27,2.44,-959.96,3.73,0.88,-0.79,25.65,-2.55,-22.20,24.48,03/25/2020,14:56:04.600,0,0,0,0,0,0,0,9999,9.960,
01/01/2000,00:00:45.01,-39.06,-1.46,-965.33,0.84,2.79,-0.48,26.10,-0.15,-21.90,24.34,03/25/2020,14:56:04.700,0,0,0,0,0,0,0,9999,9.960,
01/01/2000,00:00:45.11,-30.76,-2.44,-970.70,1.0,1.50,0.89,25.05,-1.95,-20.55,24.48,03/25/2020,14:56:04.800,0,0,0,0,0,0,0,9999,9.960,
01/01/2000,00:00:45.21,-31.74,7.81,-965.82,0.97,0.89,-0.06,25.80,-1.20,-24.0,24.63,03/25/2020,14:56:04.900,0,0,0,0,0,0,0,9999,9.961,
01/01/2000,00:00:45.31,-20.02,-7.32,-967.77,2.80,-0.37,1.78,25.65,-1.05,-23.55,24.39,03/25/2020,14:56:05.000,0,0,0,0,0,0,0,9999,9.961,
01/01/2000,00:00:45.41,-40.53,6.84,-961.91,0.85,1.62,1.48,21.75,-2.55,-19.35,24.48,03/25/2020,14:56:05.100,0,0,0,0,0,0,0,9999,9.961,
01/01/2000,00:00:45.51,-45.90,-14.16,-983.40,3.40,-0.89,3.57,26.25,0.0,-22.20,24.29,03/25/2020,14:56:05.200,0,0,0,0,0,0,0,9999,9.961,
01/01/2000,00:00:45.61,-25.88,3.91,-968.75,2.62,-1.60,0.45,26.70,-0.60,-22.80,24.63,03/25/2020,14:56:05.300,0,0,0,0,0,0,0,9999,9.961,
01/01/2000,00:00:45.71,-34.67,-14.65,-966.31,-0.67,1.42,-3.12,26.40,-1.50,-22.65,24.72,03/25/2020,14:56:05.400,0,0,0,0,0,0,0,9999,9.961,
01/01/2000,00:00:45.81,-32.71,4.88,-957.52,-0.39,0.39,-1.21,28.05,0.0,-23.55,24.39,03/25/2020,14:56:05.500,0,0,0,0,0,0,0,9999,9.961,
01/01/2000,00:00:45.90,-34.18,-10.25,-968.26,-0.21,-0.27,-1.06,24.75,-2.25,-20.55,24.39,03/25/2020,14:56:05.600,0,0,0,0,0,0,0,9999,9.961,
01/01/2000,00:00:46.00,-36.13,-4.39,-954.59,1.22,-1.30,3.12,23.55,-2.10,-20.70,24.39,03/25/2020,14:56:05.700,0,0,0,0,0,0,0,9999,9.961,
01/01/2000,00:00:46.10,-40.53,1.46,-966.80,-0.05,1.58,1.24,24.60,-2.55,-19.65,24.48,03/25/2020,14:56:05.800,0,0,0,0,0,0,0,9999,9.961,
01/01/2000,00:00:46.20,-41.99,4.88,-963.87,1.66,1.15,-0.47,26.40,-1.50,-22.35,24.39,03/25/2020,14:56:05.900,0,0,0,0,0,0,0,9999,9.961,
01/01/2000,00:00:46.30,-28.32,0.98,-969.24,2.33,-2.51,0.27,24.75,-2.70,-20.25,24.39,03/25/2020,14:56:06.000,0,0,0,0,0,0,0,9999,9.955,
01/01/2000,00:00:46.41,-41.02,-12.70,-954.59,1.01,-0.51,-1.31,25.95,-1.35,-22.80,24.72,03/25/2020,14:56:06.100,0,0,0,0,0,0,0,9999,9.962,
01/01/2000,00:00:46.51,-33.20,0.0,-969.73,1.50,3.22,-0.92,24.15,-1.35,-20.10,24.29,03/25/2020,14:56:06.200,0,0,0,0,0,0,0,9999,9.962,
01/01/2000,00:00:46.61,-37.11,9.28,-964.84,1.39,0.98,0.79,24.30,-0.90,-20.85,24.72,03/25/2020,14:56:06.300,0,0,0,0,0,0,0,9999,9.962,
01/01/2000,00:00:46.71,-51.27,0.0,-969.24,-0.62,-0.03,-2.0,25.80,-1.50,-19.80,24.53,03/25/2020,14:56:06.400,0,0,0,0,0,0,0,9999,9.962,
01/01/2000,00:00:46.81,-25.88,0.98,-973.14,2.75,0.82,-0.54,25.95,0.30,-22.80,24.29,03/25/2020,14:56:06.500,0,0,0,0,0,0,0,9999,9.962,
01/01/2000,00:00:46.91,-41.99,8.79,-960.94,1.53,2.30,-1.71,25.80,-2.25,-23.40,24.68,03/25/2020,14:56:06.600,0,0,0,0,0,0,0,9999,9.962,
01/01/2000,00:00:47.01,-47.85,2.44,-962.89,3.23,-1.52,-1.22,24.90,-2.10,-20.40,24.68,03/25/2020,14:56:06.700,0,0,0,0,0,0,0,9999,9.962,
01/01/2000,00:00:47.11,-47.36,-7.81,-974.12,1.17,-2.34,1.02,24.30,-1.50,-21.30,24.53,03/25/2020,14:56:06.800,0,0,0,0,0,0,0,9999,9.962,
01/01/2000,00:00:47.21,-36.13,4.39,-969.73,0.56,1.50,-1.59,23.10,-2.10,-21.15,24.53,03/25/2020,14:56:06.900,0,0,0,0,0,0,0,9999,9.962,
01/01/2000,00:00:47.31,-36.62,-3.91,-967.77,2.05,-0.88,0.98,27.30,-0.60,-22.20,24.53,03/25/2020,14:56:07.000,0,0,0,0,0,0,0,9999,9.962,
01/01/2000,00:00:47.41,-46.39,3.91,-961.91,4.61,-1.44,1.38,24.90,-2.55,-20.40,24.48,03/25/2020,14:56:07.100,0,0,0,0,0,0,0,9999,9.962,
01/01/2000,00:00:47.50,-48.34,2.93,-964.84,2.80,0.69,0.75,25.65,-0.60,-22.20,24.53,03/25/2020,14:56:07.200,0,0,0,0,0,0,0,9999,9.963,
01/01/2000,00:00:47.60,-40.53,-4.39,-956.05,0.76,0.07,0.66,26.40,-0.45,-21.90,24.48,03/25/2020,14:56:07.300,0,0,0,0,0,0,0,9999,9.963,
01/01/2000,00:00:47.70,-29.79,-0.49,-971.19,-0.33,-2.07,0.64,24.30,-2.70,-19.50,24.48,03/25/2020,14:56:07.400,0,0,0,0,0,0,0,9999,9.963,
01/01/2000,00:00:47.80,-39.55,-10.25,-969.73,1.02,0.58,-2.07,23.55,-1.80,-19.35,24.39,03/25/2020,14:56:07.500,0,0,0,0,0,0,0,9999,9.963,
01/01/2000,00:00:47.90,-42.97,6.35,-972.66,-0.32,0.11,-2.01,25.95,-1.35,-22.20,24.29,03/25/2020,14:56:07.600,0,0,0,0,0,0,0,9999,9.963,
01/01/2000,00:00:48.00,-35.16,-1.46,-960.45,1.92,1.02,2.03,26.10,-1.95,-23.40,24.48,03/25/2020,14:56:07.700,0,0,0,0,0,0,0,9999,9.963,
01/01/2000,00:00:48.10,-26.37,-2.44,-960.45,1.07,0.85,-0.28,25.80,-1.50,-21.30,24.39,03/25/2020,14:56:07.800,0,0,0,0,0,0,0,9999,9.963,
01/01/2000,00:00:48.20,-30.76,-6.84,-958.01,4.56,-0.01,1.37,24.0,-1.95,-20.25,24.68,03/25/2020,14:56:07.900,0,0,0,0,0,0,0,9999,9.963,
01/01/2000,00:00:48.30,-43.46,9.28,-978.52,1.24,2.15,-1.22,25.20,-1.05,-20.10,24.29,03/25/2020,14:56:08.000,0,0,0,0,0,0,0,9999,9.957,
01/01/2000,00:00:48.41,-46.39,-2.44,-967.29,4.03,-0.71,-1.18,25.95,-1.80,-22.50,24.87,03/25/2020,14:56:08.100,0,0,0,0,0,0,0,9999,9.961,
01/01/2000,00:00:48.51,-37.11,-2.93,-966.80,2.82,1.20,-1.58,25.05,-1.50,-21.30,24.53,03/25/2020,14:56:08.200,0,0,0,0,0,0,0,9999,9.961,
01/01/2000,00:00:48.61,-46.39,-4.39,-961.43,2.19,1.63,-1.34,26.40,-1.50,-21.90,24.29,03/25/2020,14:56:08.300,0,0,0,0,0,0,0,9999,9.961,
01/01/2000,00:00:48.71,-33.20,17.58,-973.63,2.06,-1.69,0.14,26.70,0.0,-22.20,24.53,03/25/2020,14:56:08.400,0,0,0,0,0,0,0,9999,9.961,
01/01/2000,00:00:48.81,-34.67,0.98,-964.36,2.55,0.85,-1.76,25.80,-1.50,-20.25,24.53,03/25/2020,14:56:08.500,0,0,0,0,0,0,0,9999,9.961,
01/01/2000,00:00:48.91,-46.39,-0.49,-954.10,2.66,-0.41,-2.94,26.25,-2.10,-20.10,24.72,03/25/2020,14:56:08.600,0,0,0,0,0,0,0,9999,9.964,
01/01/2000,00:00:49.01,-26.86,-9.77,-972.17,2.82,-0.19,0.33,26.40,-1.50,-22.95,24.63,03/25/2020,14:56:08.700,0,0,0,0,0,0,0,9999,9.964,
01/01/2000,00:00:49.11,-50.78,0.98,-967.29,2.31,2.91,0.91,25.80,-1.95,-22.65,24.53,03/25/2020,14:56:08.800,0,0,0,0,0,0,0,9999,9.964,
01/01/2000,00:00:49.21,-25.88,-0.49,-961.91,1.73,0.29,0.39,25.80,0.90,-22.65,24.72,03/25/2020,14:56:08.900,0,0,0,0,0,0,0,9999,9.964,
01/01/2000,00:00:49.31,-41.50,-4.88,-964.84,0.50,2.89,-1.59,24.30,-2.25,-19.20,24.63,03/25/2020,14:56:09.000,0,0,0,0,0,0,0,9999,9.964,
01/01/2000,00:00:49.41,-23.44,-6.35,-957.52,1.42,1.54,0.70,23.25,-2.70,-19.50,24.63,03/25/2020,14:56:09.100,0,0,0,0,0,0,0,9999,9.964,
01/01/2000,00:00:49.51,-40.53,-3.42,-958.01,-0.31,0.11,-1.12,23.10,-2.55,-20.40,24.63,03/25/2020,14:56:09.200,0,0,0,0,0,0,0,9999,9.964,
01/01/2000,00:00:49.61,-50.29,-2.93,-964.36,1.77,1.31,-1.11,26.85,-0.45,-22.35,24.72,03/25/2020,14:56:09.300,0,0,0,0,0,0,0,9999,9.964,
01/01/2000,00:00:49.71,-47.36,-9.28,-958.01,2.56,0.03,0.24,22.95,-1.95,-20.85,24.48,03/25/2020,14:56:09.400,0,0,0,0,0,0,0,9999,9.964,
01/01/2000,00:00:49.81,-50.29,-19.53,-963.87,0.94,1.11,4.45,26.25,-1.35,-22.50,24.72,03/25/2020,14:56:09.500,0,0,0,0,0,0,0,9999,9.964,
01/01/2000,00:00:49.91,-34.18,-6.84,-958.01,1.87,1.71,0.02,26.10,-0.90,-23.70,24.82,03/25/2020,14:56:09.600,0,0,0,0,0,0,0,9999,9.964,
01/01/2000,00:00:50.00,-46.39,6.35,-974.12,1.11,-0.27,0.06,24.90,-1.80,-20.40,24.53,03/25/2020,14:56:09.700,0,0,0,0,0,0,0,9999,9.964,
01/01/2000,00:00:50.10,-33.20,3.91,-967.77,1.84,0.18,-0.32,25.35,-2.25,-20.85,24.53,03/25/2020,14:56:09.800,0,0,0,0,0,0,0,9999,9.965,
01/01/2000,00:00:50.20,-43.95,-2.44,-958.01,0.15,1.48,1.08,25.20,-1.05,-22.80,24.53,03/25/2020,14:56:09.900,0,0,0,0,0,0,0,9999,9.965,
01/01/2000,00:00:50.30,-29.30,-3.42,-956.05,1.07,-2.05,2.34,26.40,-0.45,-22.65,24.53,03/25/2020,14:56:10.000,0,0,0,0,0,0,0,9999,9.959,
01/01/2000,00:00:50.41,-32.71,9.77,-960.94,3.44,0.58,-0.92,26.25,-0.30,-23.10,24.82,03/25/2020,14:56:10.100,0,0,0,0,0,0,0,9999,9.963,
01/01/2000,00:00:50.51,-59.08,-9.28,-983.89,0.73,-0.12,-0.89,24.60,-2.85,-18.30,24.53,03/25/2020,14:56:10.200,0,0,0,0,0,0,0,9999,9.963,
01/01/2000,00:00:50.61,-40.53,12.21,-978.03,2.15,0.14,1.63,24.30,-1.50,-21.60,24.72,03/25/2020,14:56:10.300,0,0,0,0,0,0,0,9999,9.963,
01/01/2000,00:00:50.71,-39.55,-9.28,-947.27,2.59,0.05,0.70,25.05,-1.50,-21.60,24.63,03/25/2020,14:56:10.400,0,0,0,0,0,0,0,9999,9.963,
01/01/2000,00:00:50.81,-34.67,1.46,-979.98,3.49,-0.41,2.82,24.30,-1.95,-19.80,24.72,03/25/2020,14:56:10.500,0,0,0,0,0,0,0,9999,9.963,
01/01/2000,00:00:50.91,-31.25,0.49,-946.78,1.93,1.95,-0.11,26.40,-0.90,-22.95,24.63,03/25/2020,14:56:10.600,0,0,0,0,0,0,0,9999,9.963,
01/01/2000,00:00:51.01,-46.39,-9.77,-970.21,3.21,0.26,1.79,26.10,-1.20,-22.35,24.82,03/25/2020,14:56:10.700,0,0,0,0,0,0,0,9999,9.965,
01/01/2000,00:00:51.11,-35.64,2.93,-962.89,1.69,1.18,2.27,22.80,-1.35,-20.40,24.72,03/25/2020,14:56:10.800,0,0,0,0,0,0,0,9999,9.965,
01/01/2000,00:00:51.21,-31.25,4.39,-955.57,5.12,0.38,2.40,25.80,-2.25,-21.60,24.72,03/25/2020,14:56:10.900,0,0,0,0,0,0,0,9999,9.965,
01/01/2000,00:00:51.31,-41.99,-1.95,-956.54,0.30,1.66,1.24,27.0,-2.10,-23.10,24.72,03/25/2020,14:56:11.100,0,0,0,0,0,0,0,9999,9.941,
01/01/2000,00:00:51.50,-39.06,2.44,-972.66,2.35,1.45,-5.91,27.0,-1.05,-22.50,24.87,03/25/2020,14:56:11.200,0,0,0,0,0,0,0,9999,9.941,
01/01/2000,00:00:51.61,-51.76,0.0,-969.73,-0.31,1.95,-0.31,23.25,-2.70,-19.80,24.87,03/25/2020,14:56:11.300,0,0,0,0,0,0,0,9999,9.943,
01/01/2000,00:00:51.71,-47.36,0.0,-970.21,1.05,1.66,-3.09,24.75,-2.70,-20.25,24.87,03/25/2020,14:56:11.400,0,0,0,0,0,0,0,9999,9.944,
01/01/2000,00:00:51.81,-42.48,-1.95,-967.29,1.89,0.26,-1.65,25.80,-1.50,-22.65,24.72,03/25/2020,14:56:11.500,0,0,0,0,0,0,0,9999,9.944,
01/01/2000,00:00:51.91,-41.99,-9.77,-969.24,1.94,-2.13,-0.40,25.05,-1.20,-22.95,24.82,03/25/2020,14:56:11.600,0,0,0,0,0,0,0,9999,9.944,
01/01/2000,00:00:52.01,-55.66,2.44,-968.26,1.54,0.82,-2.28,26.40,-1.20,-22.65,24.82,03/25/2020,14:56:11.700,0,0,0,0,0,0,0,9999,9.944,
01/01/2000,00:00:52.11,-42.48,3.91,-964.36,0.49,0.11,-0.53,25.80,-1.95,-22.35,24.72,03/25/2020,14:56:11.800,0,0,0,0,0,0,0,9999,9.944,
01/01/2000,00:00:52.21,-46.39,14.65,-979.98,0.53,-0.41,2.98,24.30,-2.25,-20.55,24.53,03/25/2020,14:56:11.900,0,0,0,0,0,0,0,9999,9.944,
01/01/2000,00:00:52.31,-38.57,-14.65,-975.59,2.32,-0.07,3.49,24.0,-3.75,-19.80,24.63,03/25/2020,14:56:12.000,0,0,0,0,0,0,0,9999,9.944,
01/01/2000,00:00:52.41,-30.27,-4.88,-969.24,5.89,-0.21,-0.50,24.15,-1.80,-20.10,24.87,03/25/2020,14:56:12.100,0,0,0,0,0,0,0,9999,9.944,
01/01/2000,00:00:52.51,-35.64,-11.23,-966.31,2.13,-0.51,-1.27,24.60,-1.05,-22.80,24.68,03/25/2020,14:56:12.200,0,0,0,0,0,0,0,9999,9.944,
01/01/2000,00:00:52.61,-38.57,10.25,-968.26,0.63,0.15,0.35,25.20,-0.60,-22.20,24.39,03/25/2020,14:56:12.300,0,0,0,0,0,0,0,9999,9.945,
01/01/2000,00:00:52.71,-40.53,-5.86,-968.75,0.74,1.34,-0.53,26.25,-1.05,-21.75,24.72,03/25/2020,14:56:12.400,0,0,0,0,0,0,0,9999,9.945,
01/01/2000,00:00:52.81,-39.55,-5.86,-966.31,2.82,1.92,1.78,24.0,-3.0,-19.20,24.72,03/25/2020,14:56:12.500,0,0,0,0,0,0,0,9999,9.945,
01/01/2000,00:00:52.91,-41.02,-10.74,-952.15,2.81,-1.37,1.03,22.95,-1.95,-20.55,25.01,03/25/2020,14:56:12.600,0,0,0,0,0,0,0,9999,9.945,
01/01/2000,00:00:53.01,-41.50,8.79,-987.79,-0.05,2.20,2.60,25.35,-1.20,-22.65,24.72,03/25/2020,14:56:12.700,0,0,0,0,0,0,0,9999,9.947,
01/01/2000,00:00:53.11,-41.50,9.77,-964.84,2.11,-1.15,0.34,25.95,-0.30,-23.55,24.87,03/25/2020,14:56:12.800,0,0,0,0,0,0,0,9999,9.947,
01/01/2000,00:00:53.21,-37.11,-11.23,-968.26,2.49,-1.02,0.05,24.60,-1.35,-21.15,24.53,03/25/2020,14:56:12.900,0,0,0,0,0,0,0,9999,9.947,
01/01/2000,00:00:53.31,-46.88,17.58,-960.45,2.61,0.80,1.57,26.70,1.05,-22.80,24.72,03/25/2020,14:56:13.000,0,0,0,0,0,0,0,9999,9.947,
01/01/2000,00:00:53.41,-45.90,2.44,-960.94,0.74,2.22,-1.62,25.35,-1.20,-20.55,24.63,03/25/2020,14:56:13.100,0,0,0,0,0,0,0,9999,9.947,
01/01/2000,00:00:53.51,-30.27,-2.93,-964.36,3.54,-0.05,3.11,24.0,-1.50,-20.55,24.53,03/25/2020,14:56:13.200,0,0,0,0,0,0,0,9999,9.944,
01/01/2000,00:00:53.61,-28.81,9.77,-943.36,2.88,1.34,-2.57,24.75,-1.50,-19.80,24.87,03/25/2020,14:56:13.300,0,0,0,0,0,0,0,9999,9.948,
01/01/2000,00:00:53.71,-35.16,7.32,-962.89,1.38,-0.92,2.47,26.40,-1.95,-22.35,24.53,03/25/2020,14:56:13.400,0,0,0,0,0,0,0,9999,9.948,
01/01/2000,00:00:53.81,-37.11,0.49,-971.19,1.10,1.25,-5.04,25.80,-0.45,-22.65,24.72,03/25/2020,14:56:13.500,0,0,0,0,0,0,0,9999,9.948,
01/01/2000,00:00:53.91,-35.64,15.14,-976.56,0.97,2.55,-2.12,24.30,-2.70,-18.15,24.82,03/25/2020,14:56:13.600,0,0,0,0,0,0,0,9999,9.948,
01/01/2000,00:00:54.01,-43.95,4.39,-955.08,3.53,-2.25,2.63,23.70,-1.50,-20.85,24.82,03/25/2020,14:56:13.700,0,0,0,0,0,0,0,9999,9.948,
01/01/2000,00:00:54.10,-37.11,0.98,-981.45,2.44,0.56,-3.42,26.10,-1.50,-21.90,24.82,03/25/2020,14:56:13.800,0,0,0,0,0,0,0,9999,9.948,
01/01/2000,00:00:54.20,-43.46,-3.42,-954.10,1.85,-1.50,1.43,26.40,-0.45,-22.65,24.82,03/25/2020,14:56:13.900,0,0,0,0,0,0,0,9999,9.948,
01/01/2000,00:00:54.30,-37.11,-5.37,-978.03,3.82,-0.53,1.59,24.0,-2.70,-20.25,24.72,03/25/2020,14:56:14.000,0,0,0,0,0,0,0,9999,9.943,
01/01/2000,00:00:54.41,-32.71,4.39,-966.31,0.91,-0.50,1.69,25.95,-1.35,-23.10,24.91,03/25/2020,14:56:14.100,0,0,0,0,0,0,0,9999,9.946,
01/01/2000,00:00:54.51,-39.06,-8.30,-968.75,4.40,1.32,-0.68,24.0,-1.20,-19.50,24.72,03/25/2020,14:56:14.200,0,0,0,0,0,0,0,9999,9.947,
01/01/2000,00:00:54.61,-40.53,-2.44,-970.21,2.43,-2.08,-1.52,25.35,-1.20,-22.65,24.87,03/25/2020,14:56:14.300,0,0,0,0,0,0,0,9999,9.947,
01/01/2000,00:00:54.71,-37.60,-5.86,-963.87,1.60,3.63,-0.15,24.0,-1.20,-20.55,25.01,03/25/2020,14:56:14.400,0,0,0,0,0,0,0,9999,9.947,
01/01/2000,00:00:54.81,-36.13,-3.42,-968.26,-0.52,0.37,-2.17,27.0,-0.60,-22.50,25.06,03/25/2020,14:56:14.500,0,0,0,0,0,0,0,9999,9.947,
01/01/2000,00:00:54.91,-36.62,1.46,-980.96,2.82,-1.02,-2.60,27.75,-0.60,-24.15,24.91,03/25/2020,14:56:14.600,0,0,0,0,0,0,0,9999,9.947,
01/01/2000,00:00:55.01,-44.43,7.32,-970.70,1.39,1.44,-4.70,24.0,-1.50,-20.25,25.01,03/25/2020,14:56:14.700,0,0,0,0,0,0,0,9999,9.947,
01/01/2000,00:00:55.11,-42.48,-7.81,-969.73,3.49,-0.92,-0.64,23.85,-2.55,-21.45,24.87,03/25/2020,14:56:14.800,0,0,0,0,0,0,0,9999,9.947,
01/01/2000,00:00:55.21,-33.20,-3.91,-968.26,1.48,1.11,-0.62,26.25,-1.05,-21.75,24.72,03/25/2020,14:56:14.900,0,0,0,0,0,0,0,9999,9.947,
01/01/2000,00:00:55.31,-31.74,10.25,-964.84,0.51,3.13,-1.47,25.65,-0.60,-22.20,24.82,03/25/2020,14:56:15.000,0,0,0,0,0,0,0,9999,9.947,
01/01/2000,00:00:55.41,-44.43,-12.70,-982.91,0.69,1.22,0.97,26.40,-0.90,-22.35,24.87,03/25/2020,14:56:15.100,0,0,0,0,0,0,0,9999,9.947,
01/01/2000,00:00:55.51,-45.41,-6.84,-973.14,2.07,1.59,-0.77,25.05,-1.50,-20.85,24.91,03/25/2020,14:56:15.200,0,0,0,0,0,0,0,9999,9.948,
01/01/2000,00:00:55.61,-29.79,21.97,-977.54,2.02,-0.80,4.73,25.20,-1.80,-20.10,24.82,03/25/2020,14:56:15.300,0,0,0,0,0,0,0,9999,9.948,
01/01/2000,00:00:55.71,-47.36,-1.46,-960.94,1.25,-1.30,3.53,24.90,-2.55,-20.40,24.72,03/25/2020,14:56:15.400,0,0,0,0,0,0,0,9999,9.948,
01/01/2000,00:00:55.81,-51.27,-10.74,-969.73,-1.14,0.04,-0.60,24.30,-2.25,-20.85,25.15,03/25/2020,14:56:15.500,0,0,0,0,0,0,0,9999,9.948,
01/01/2000,00:00:55.91,-40.04,-9.28,-965.82,2.02,3.15,-0.79,26.40,-0.45,-22.95,25.01,03/25/2020,14:56:15.600,0,0,0,0,0,0,0,9999,9.948,
01/01/2000,00:00:56.01,-27.34,-7.81,-970.70,0.53,0.25,-0.82,26.40,-1.20,-22.95,24.53,03/25/2020,14:56:15.700,0,0,0,0,0,0,0,9999,9.948,
01/01/2000,00:00:56.11,-32.23,5.37,-982.91,3.37,0.71,-0.24,27.30,-1.80,-22.80,25.06,03/25/2020,14:56:15.800,0,0,0,0,0,0,0,9999,9.948,
01/01/2000,00:00:56.21,-29.79,0.49,-967.29,1.64,-0.56,1.42,24.90,-1.05,-19.35,24.53,03/25/2020,14:56:15.900,0,0,0,0,0,0,0,9999,9.948,
01/01/2000,00:00:56.31,-39.55,12.21,-964.84,2.05,-0.80,2.67,24.15,-2.85,-20.10,24.82,03/25/2020,14:56:16.000,0,0,0,0,0,0,0,9999,9.948,
01/01/2000,00:00:56.41,-40.53,-0.98,-960.94,1.47,1.47,-1.38,25.05,-1.50,-22.95,25.01,03/25/2020,14:56:16.100,0,0,0,0,0,0,0,9999,9.948,
01/01/2000,00:00:56.51,-33.20,0.0,-964.36,-0.96,1.16,-1.21,24.15,-1.05,-23.10,24.72,03/25/2020,14:56:16.200,0,0,0,0,0,0,0,9999,9.949,
01/01/2000,00:00:56.61,-32.71,-7.32,-965.82,1.47,0.05,2.67,24.75,-1.95,-21.30,24.72,03/25/2020,14:56:16.300,0,0,0,0,0,0,0,9999,9.950,
01/01/2000,00:00:56.71,-32.71,17.58,-977.54,-0.08,-1.67,-0.40,26.40,-0.90,-24.0,24.53,03/25/2020,14:56:16.400,0,0,0,0,0,0,0,9999,9.951,
01/01/2000,00:00:56.81,-38.57,-4.39,-965.33,2.85,-1.04,0.69,24.30,-3.0,-18.15,24.87,03/25/2020,14:56:16.500,0,0,0,0,0,0,0,9999,9.951,
01/01/2000,00:00:56.91,-41.99,4.88,-973.14,2.55,-1.16,-0.20,23.70,-1.50,-19.80,24.91,03/25/2020,14:56:16.600,0,0,0,0,0,0,0,9999,9.951,
01/01/2000,00:00:57.01,-40.53,-2.44,-972.17,0.89,1.29,2.24,24.60,-1.80,-21.15,25.06,03/25/2020,14:56:16.700,0,0,0,0,0,0,0,9999,9.951,
01/01/2000,00:00:57.11,-30.76,-0.49,-973.14,1.15,1.83,-2.64,26.25,-0.30,-22.50,24.87,03/25/2020,14:56:16.800,0,0,0,0,0,0,0,9999,9.951,
01/01/2000,00:00:57.21,-41.02,-2.93,-967.77,1.31,0.60,-1.95,25.95,-0.30,-22.20,25.15,03/25/2020,14:56:16.900,0,0,0,0,0,0,0,9999,9.951,
01/01/2000,00:00:57.31,-56.64,5.37,-963.87,0.53,1.80,-1.02,24.15,-1.05,-21.15,24.91,03/25/2020,14:56:17.000,0,0,0,0,0,0,0,9999,9.951,
01/01/2000,00:00:57.41,-23.93,0.0,-953.61,1.22,-0.85,-0.42,24.15,-1.05,-20.40,24.87,03/25/2020,14:56:17.100,0,0,0,0,0,0,0,9999,9.951,
01/01/2000,00:00:57.51,-24.90,-2.93,-976.56,2.22,-0.15,3.34,24.90,-2.10,-19.65,25.06,03/25/2020,14:56:17.200,0,0,0,0,0,0,0,9999,9.951,
01/01/2000,00:00:57.61,-57.13,-7.32,-975.10,1.09,-1.95,-1.68,25.35,-0.90,-22.95,24.91,03/25/2020,14:56:17.300,0,0,0,0,0,0,0,9999,9.951,
01/01/2000,00:00:57.71,-47.85,9.77,-963.38,0.81,0.98,-0.71,24.0,-1.50,-20.55,24.91,03/25/2020,14:56:17.400,0,0,0,0,0,0,0,9999,9.951,
01/01/2000,00:00:57.81,-37.60,-3.91,-970.70,0.73,-0.21,2.27,26.40,-0.90,-23.40,24.82,03/25/2020,14:56:17.500,0,0,0,0,0,0,0,9999,9.951,
01/01/2000,00:00:57.90,-33.20,-5.37,-963.38,2.54,-1.69,1.89,25.65,-0.60,-22.20,24.91,03/25/2020,14:56:17.600,0,0,0,0,0,0,0,9999,9.952,
01/01/2000,00:00:58.00,-44.43,2.44,-970.70,0.51,-0.24,-1.79,24.15,-2.10,-21.75,25.01,03/25/2020,14:56:17.700,0,0,0,0,0,0,0,9999,9.952,
01/01/2000,00:00:58.10,-44.43,12.70,-981.45,4.37,1.20,-0.04,23.10,-1.80,-20.70,24.87,03/25/2020,14:56:17.800,0,0,0,0,0,0,0,9999,9.952,
01/01/2000,00:00:58.20,-45.41,-9.28,-976.07,1.17,1.24,1.23,26.70,-2.10,-22.20,24.91,03/25/2020,14:56:17.900,0,0,0,0,0,0,0,9999,9.952,
01/01/2000,00:00:58.30,-53.22,-0.98,-954.10,3.78,0.77,1.19,27.45,0.45,-23.40,25.06,03/25/2020,14:56:18.000,0,0,0,0,0,0,0,9999,9.947,
01/01/2000,00:00:58.41,-30.76,13.18,-971.19,3.37,-0.51,-4.53,25.80,-1.50,-23.40,24.82,03/25/2020,14:56:18.100,0,0,0,0,0,0,0,9999,9.952,
01/01/2000,00:00:58.51,-43.95,-9.28,-964.84,4.69,-1.24,-0.39,25.05,-2.25,-20.25,25.06,03/25/2020,14:56:18.200,0,0,0,0,0,0,0,9999,9.950,
01/01/2000,00:00:58.61,-36.13,2.93,-976.07,2.04,-3.09,0.82,24.30,-1.95,-19.20,25.01,03/25/2020,14:56:18.300,0,0,0,0,0,0,0,9999,9.952,
01/01/2000,00:00:58.71,-48.34,-5.37,-971.19,1.77,0.28,2.21,24.75,-0.45,-22.65,25.06,03/25/2020,14:56:18.400,0,0,0,0,0,0,0,9999,9.951,
01/01/2000,00:00:58.81,-35.64,6.84,-961.43,-0.01,0.98,-1.99,26.10,-0.45,-22.95,24.72,03/25/2020,14:56:18.500,0,0,0,0,0,0,0,9999,9.952,
01/01/2000,00:00:58.91,-36.13,2.93,-970.21,2.76,-0.55,2.13,24.90,-1.35,-21.45,25.06,03/25/2020,14:56:18.600,0,0,0,0,0,0,0,9999,9.952,
01/01/2000,00:00:59.01,-39.55,5.37,-967.77,5.21,-0.47,0.97,26.10,-0.15,-23.40,24.87,03/25/2020,14:56:18.700,0,0,0,0,0,0,0,9999,9.953,
01/01/2000,00:00:59.11,-41.50,-6.84,-968.75,-0.13,0.32,1.61,24.60,-2.10,-20.40,25.15,03/25/2020,14:56:18.800,0,0,0,0,0,0,0,9999,9.953,
01/01/2000,00:00:59.21,-40.04,9.28,-967.29,0.08,-1.30,2.23,24.30,-1.20,-21.60,24.91,03/25/2020,14:56:18.900,0,0,0,0,0,0,0,9999,9.953,
01/01/2000,00:00:59.31,-39.55,-1.95,-959.96,4.51,0.55,0.95,25.95,-2.85,-22.20,25.15,03/25/2020,14:56:19.000,0,0,0,0,0,0,0,9999,9.953,
01/01/2000,00:00:59.41,-38.57,2.93,-981.45,1.19,0.79,-0.32,26.10,-1.95,-22.95,24.87,03/25/2020,14:56:19.100,0,0,0,0,0,0,0,9999,9.953,
01/01/2000,00:00:59.51,-36.62,1.46,-966.80,2.34,0.34,-2.73,26.85,-0.45,-21.90,24.91,03/25/2020,14:56:19.200,0,0,0,0,0,0,0,9999,9.953,
01/01/2000,00:00:59.61,-33.69,-8.30,-965.33,1.60,1.31,2.65,23.85,-2.55,-22.20,24.72,03/25/2020,14:56:19.300,0,0,0,0,0,0,0,9999,9.953,
01/01/2000,00:00:59.71,-35.64,12.70,-967.29,3.15,0.75,0.11,24.60,-1.05,-20.40,24.87,03/25/2020,14:56:19.400,0,0,0,0,0,0,0,9999,9.953,
01/01/2000,00:00:59.81,-25.39,-6.35,-960.94,-0.37,0.66,0.06,24.30,-2.70,-20.55,24.87,03/25/2020,14:56:19.500,0,0,0,0,0,0,0,9999,9.953,
01/01/2000,00:00:59.90,-41.99,-5.86,-970.21,1.03,-0.22,-1.53,26.40,-0.90,-22.95,24.91,03/25/2020,14:56:19.600,0,0,0,0,0,0,0,9999,9.953,
01/01/2000,00:01:00.00,-36.62,4.39,-967.77,2.89,1.01,-2.74,22.50,-4.35,-18.0,24.82,03/25/2020,14:56:19.700,0,0,0,0,0,0,0,9999,9.953,
01/01/2000,00:01:00.10,-34.18,1.95,-963.38,2.0,-2.30,-0.85,25.20,-0.30,-22.80,25.06,03/25/2020,14:56:19.800,0,0,0,0,0,0,0,9999,9.953,
01/01/2000,00:01:00.20,-41.02,4.88,-970.70,1.60,0.18,0.42,26.70,-0.60,-22.20,24.91,03/25/2020,14:56:19.900,0,0,0,0,0,0,0,9999,9.954,
01/01/2000,00:01:00.30,-29.79,9.28,-971.68,-0.04,-2.08,-2.04,24.90,-1.05,-20.70,25.06,03/25/2020,14:56:20.000,0,0,0,0,0,0,0,9999,9.948,
01/01/2000,00:01:00.41,-41.99,0.98,-975.59,1.18,-1.40,1.02,28.35,-0.60,-22.50,25.01,03/25/2020,14:56:20.100,0,0,0,0,0,0,0,9999,9.952,
01/01/2000,00:01:00.51,-46.39,-7.32,-968.75,1.01,1.60,-0.65,25.65,0.0,-22.50,25.15,03/25/2020,14:56:20.200,0,0,0,0,0,0,0,9999,9.952,
01/01/2000,00:01:00.61,-40.53,-3.91,-971.19,1.86,-0.48,1.58,27.75,-1.35,-22.80,25.15,03/25/2020,14:56:20.300,0,0,0,0,0,0,0,9999,9.952,
01/01/2000,00:01:00.71,-47.85,-2.44,-971.68,1.06,1.25,-0.64,25.35,-1.50,-20.85,25.06,03/25/2020,14:56:20.400,0,0,0,0,0,0,0,9999,9.952,
01/01/2000,00:01:00.81,-45.90,12.21,-962.89,4.40,-0.11,3.79,24.0,-3.0,-19.50,25.15,03/25/2020,14:56:20.500,0,0,0,0,0,0,0,9999,9.952,
01/01/2000,00:01:00.91,-36.13,5.86,-979.00,3.40,1.18,-4.30,24.90,-1.35,-21.15,25.06,03/25/2020,14:56:20.600,0,0,0,0,0,0,0,9999,9.952,
01/01/2000,00:01:01.01,-43.95,8.79,-975.59,3.66,-0.49,0.48,26.10,-0.45,-22.35,25.25,03/25/2020,14:56:20.700,0,0,0,0,0,0,0,9999,9.952,
01/01/2000,00:01:01.11,-32.71,-13.18,-967.77,3.22,-0.29,0.57,24.30,-2.25,-19.50,25.15,03/25/2020,14:56:20.800,0,0,0,0,0,0,0,9999,9.953,
01/01/2000,00:01:01.21,-49.80,3.91,-975.59,1.03,1.12,-2.81,26.25,-0.60,-23.85,24.91,03/25/2020,14:56:20.900,0,0,0,0,0,0,0,9999,9.953,
01/01/2000,00:01:01.31,-33.20,5.37,-973.63,3.21,1.79,-0.81,25.65,-1.05,-21.75,25.20,03/25/2020,14:56:21.000,0,0,0,0,0,0,0,9999,9.953,
01/01/2000,00:01:01.41,-36.13,-2.44,-964.84,3.37,1.70,0.88,23.85,-1.35,-19.65,25.25,03/25/2020,14:56:21.100,0,0,0,0,0,0,0,9999,9.953,
01/01/2000,00:01:01.51,-47.36,8.79,-977.54,2.60,-2.05,1.05,23.10,-1.80,-21.45,24.72,03/25/2020,14:56:21.200,0,0,0,0,0,0,0,9999,9.953,
01/01/2000,00:01:01.61,-46.39,10.74,-960.45,3.05,-0.03,1.64,26.40,-1.50,-22.65,25.15,03/25/2020,14:56:21.300,0,0,0,0,0,0,0,9999,9.955,
01/01/2000,00:01:01.71,-25.88,1.46,-963.87,3.44,-1.93,1.48,25.65,0.0,-23.55,25.06,03/25/2020,14:56:21.400,0,0,0,0,0,0,0,9999,9.955,
01/01/2000,00:01:01.81,-46.39,-12.70,-964.84,-1.60,0.63,1.52,24.90,-1.05,-23.10,25.06,03/25/2020,14:56:21.500,0,0,0,0,0,0,0,9999,9.955,
01/01/2000,00:01:01.91,-39.55,-3.91,-980.96,2.46,-1.82,0.16,24.30,-1.50,-21.60,24.72,03/25/2020,14:56:21.600,0,0,0,0,0,0,0,9999,9.955,
01/01/2000,00:01:02.01,-26.86,0.0,-958.50,2.91,3.06,-0.06,23.70,-1.95,-21.60,25.20,03/25/2020,14:56:21.700,0,0,0,0,0,0,0,9999,9.955,
01/01/2000,00:01:02.11,-38.57,7.32,-971.19,3.81,-2.19,0.38,24.30,-3.45,-19.20,24.91,03/25/2020,14:56:21.800,0,0,0,0,0,0,0,9999,9.955,
01/01/2000,00:01:02.21,-32.23,-10.74,-963.38,3.81,2.18,-1.20,25.95,-0.60,-22.20,25.01,03/25/2020,14:56:21.900,0,0,0,0,0,0,0,9999,9.955,
01/01/2000,00:01:02.31,-40.53,-1.46,-968.75,-0.29,1.11,-1.99,23.85,-3.90,-21.45,25.01,03/25/2020,14:56:22.000,0,0,0,0,0,0,0,9999,9.955,
01/01/2000,00:01:02.41,-48.83,-6.35,-968.75,1.33,-0.92,1.57,26.85,-1.95,-21.90,25.15,03/25/2020,14:56:22.100,0,0,0,0,0,0,0,9999,9.955,
01/01/2000,00:01:02.51,-50.29,2.44,-966.31,2.60,-1.25,-1.53,26.25,0.0,-22.50,24.91,03/25/2020,14:56:22.200,0,0,0,0,0,0,0,9999,9.955,
01/01/2000,00:01:02.61,-44.43,-2.44,-958.01,4.82,0.58,0.70,24.0,-3.0,-18.45,25.15,03/25/2020,14:56:22.300,0,0,0,0,0,0,0,9999,9.955,
01/01/2000,00:01:02.71,-38.09,3.42,-960.45,0.01,0.24,-0.71,24.75,-1.50,-20.25,24.91,03/25/2020,14:56:22.400,0,0,0,0,0,0,0,9999,9.955,
01/01/2000,00:01:02.81,-30.27,1.95,-965.33,1.30,2.21,1.82,26.40,-0.15,-21.60,25.20,03/25/2020,14:56:22.500,0,0,0,0,0,0,0,9999,9.955,
01/01/2000,00:01:02.90,-40.53,3.91,-975.59,0.88,-0.44,0.28,26.25,-0.60,-21.45,24.87,03/25/2020,14:56:22.600,0,0,0,0,0,0,0,9999,9.956,
01/01/2000,00:01:03.00,-53.22,7.81,-950.68,2.36,1.39,0.11,22.95,-3.0,-20.55,25.06,03/25/2020,14:56:22.700,0,0,0,0,0,0,0,9999,9.956,
01/01/2000,00:01:03.10,-49.80,0.98,-963.87,3.75,-1.25,1.65,26.40,0.15,-21.90,25.20,03/25/2020,14:56:22.800,0,0,0,0,0,0,0,9999,9.956,
01/01/2000,00:01:03.20,-43.46,1.95,-954.59,3.33,0.70,1.99,23.55,-2.85,-20.40,25.15,03/25/2020,14:56:22.900,0,0,0,0,0,0,0,9999,9.956,
01/01/2000,00:01:03.30,-39.06,3.91,-972.17,0.12,1.27,1.69,24.60,-1.35,-20.10,24.87,03/25/2020,14:56:23.000,0,0,0,0,0,0,0,9999,9.951,
01/01/2000,00:01:03.41,-42.48,6.84,-958.50,5.89,-0.65,-1.12,26.10,-0.15,-22.35,25.15,03/25/2020,14:56:23.100,0,0,0,0,0,0,0,9999,9.954,
01/01/2000,00:01:03.51,-28.32,-11.72,-968.26,0.93,1.59,-1.11,25.65,-0.30,-23.55,24.87,03/25/2020,14:56:23.200,0,0,0,0,0,0,0,9999,9.956,
01/01/2000,00:01:03.61,-44.92,0.0,-965.33,1.50,0.91,0.29,26.70,-1.35,-21.15,25.20,03/25/2020,14:56:23.300,0,0,0,0,0,0,0,9999,9.956,
01/01/2000,00:01:03.71,-41.50,-0.49,-974.12,4.29,0.76,2.15,24.90,-1.80,-21.15,25.20,03/25/2020,14:56:23.400,0,0,0,0,0,0,0,9999,9.956,
01/01/2000,00:01:03.81,-43.46,-1.95,-942.87,2.44,-1.63,0.76,24.15,-2.55,-20.10,25.20,03/25/2020,14:56:23.500,0,0,0,0,0,0,0,9999,9.956,
01/01/2000,00:01:03.91,-32.23,5.86,-973.14,4.47,1.50,1.51,25.35,0.15,-23.40,25.01,03/25/2020,14:56:23.600,0,0,0,0,0,0,0,9999,9.956,
01/01/2000,00:01:04.01,-50.78,-2.44,-964.84,3.18,0.93,1.07,26.40,-0.45,-22.35,25.20,03/25/2020,14:56:23.700,0,0,0,0,0,0,0,9999,9.956,
01/01/2000,00:01:04.11,-48.83,6.35,-969.73,2.18,1.13,-1.40,27.0,-1.35,-21.45,24.91,03/25/2020,14:56:23.800,0,0,0,0,0,0,0,9999,9.956,
01/01/2000,00:01:04.21,-37.60,-11.23,-992.19,2.92,0.85,1.98,24.0,-3.45,-20.85,25.15,03/25/2020,14:56:23.900,0,0,0,0,0,0,0,9999,9.957,
01/01/2000,00:01:04.31,-41.99,5.86,-977.05,-0.31,1.22,-1.04,24.90,-2.55,-19.65,25.20,03/25/2020,14:56:24.000,0,0,0,0,0,0,0,9999,9.957,
01/01/2000,00:01:04.41,-49.80,-4.39,-965.33,2.16,4.02,-1.15,24.60,-2.55,-21.75,25.15,03/25/2020,14:56:24.100,0,0,0,0,0,0,0,9999,9.957,
01/01/2000,00:01:04.51,-41.99,-0.49,-965.33,3.79,-0.77,0.44,24.90,-2.10,-20.10,25.15,03/25/2020,14:56:24.200,0,0,0,0,0,0,0,9999,9.957,
01/01/2000,00:01:04.61,-56.15,14.16,-969.73,1.32,0.71,2.0,26.10,-0.45,-21.60,25.01,03/25/2020,14:56:24.300,0,0,0,0,0,0,0,9999,9.957,
01/01/2000,00:01:04.71,-42.97,0.98,-977.05,1.83,0.01,1.57,25.95,-1.35,-23.55,25.15,03/25/2020,14:56:24.400,0,0,0,0,0,0,0,9999,9.957,
01/01/2000,00:01:04.81,-46.88,7.32,-968.26,0.07,0.50,-1.40,26.40,-0.90,-22.65,25.35,03/25/2020,14:56:24.500,0,0,0,0,0,0,0,9999,9.957,
01/01/2000,00:01:04.90,-39.55,4.88,-961.91,0.84,-0.85,1.06,22.80,-2.85,-18.30,25.01,03/25/2020,14:56:24.600,0,0,0,0,0,0,0,9999,9.957,
01/01/2000,00:01:05.00,-50.78,4.39,-967.29,1.15,1.76,2.33,25.35,-1.50,-19.80,25.35,03/25/2020,14:56:24.700,0,0,0,0,0,0,0,9999,9.957,
01/01/2000,00:01:05.10,-32.71,-4.39,-956.54,3.50,-0.88,-0.50,26.70,-1.35,-23.10,25.15,03/25/2020,14:56:24.800,0,0,0,0,0,0,0,9999,9.957,
01/01/2000,00:01:05.20,-45.41,-5.37,-959.96,2.58,1.18,-1.43,25.65,-1.80,-23.55,25.25,03/25/2020,14:56:24.900,0,0,0,0,0,0,0,9999,9.957,
01/01/2000,00:01:05.30,-34.67,-4.39,-971.68,2.76,-1.38,-2.59,25.20,-1.05,-19.35,25.15,03/25/2020,14:56:25.000,0,0,0,0,0,0,0,9999,9.953,
01/01/2000,00:01:05.41,-39.55,10.25,-962.89,1.56,1.90,-4.11,26.70,-1.35,-21.15,25.15,03/25/2020,14:56:25.100,0,0,0,0,0,0,0,9999,9.956,
01/01/2000,00:01:05.51,-31.25,-5.37,-961.91,1.08,0.11,-1.05,24.75,-1.95,-20.55,25.25,03/25/2020,14:56:25.200,0,0,0,0,0,0,0,9999,9.956,
01/01/2000,00:01:05.61,-30.76,-9.28,-973.63,4.14,-1.05,1.27,26.25,-0.30,-22.80,25.20,03/25/2020,14:56:25.300,0,0,0,0,0,0,0,9999,9.956,
01/01/2000,00:01:05.71,-48.83,3.42,-968.75,-1.11,2.38,-0.80,25.05,-0.90,-20.85,24.87,03/25/2020,14:56:25.400,0,0,0,0,0,0,0,9999,9.956,
01/01/2000,00:01:05.81,-33.69,15.14,-964.36,0.56,-0.08,-2.32,26.10,-1.50,-22.65,25.35,03/25/2020,14:56:25.500,0,0,0,0,0,0,0,9999,9.956,
01/01/2000,00:01:05.91,-42.48,4.39,-965.33,1.09,1.66,-1.74,26.10,0.15,-22.35,25.35,03/25/2020,14:56:25.600,0,0,0,0,0,0,0,9999,9.956,
01/01/2000,00:01:06.01,-56.64,11.72,-974.12,0.41,0.71,1.07,22.65,-2.70,-19.20,25.20,03/25/2020,14:56:25.700,0,0,0,0,0,0,0,9999,9.956,
01/01/2000,00:01:06.11,-35.16,15.14,-962.89,1.85,1.09,-0.42,24.75,-1.50,-20.25,25.01,03/25/2020,14:56:25.800,0,0,0,0,0,0,0,9999,9.956,
01/01/2000,00:01:06.21,-35.64,-3.91,-965.82,1.01,0.75,-0.01,26.40,0.45,-23.70,25.25,03/25/2020,14:56:25.900,0,0,0,0,0,0,0,9999,9.956,
01/01/2000,00:01:06.31,-26.37,-12.21,-949.22,1.61,1.44,-0.89,27.45,-0.15,-20.55,25.25,03/25/2020,14:56:26.000,0,0,0,0,0,0,0,9999,9.956,
01/01/2000,00:01:06.41,-32.23,-7.32,-981.45,2.47,2.54,-0.52,25.05,-2.25,-20.85,25.15,03/25/2020,14:56:26.100,0,0,0,0,0,0,0,9999,9.956,
01/01/2000,00:01:06.51,-37.60,-2.44,-967.29,3.49,-2.15,1.08,25.05,-1.20,-24.45,25.15,03/25/2020,14:56:26.200,0,0,0,0,0,0,0,9999,9.957,
01/01/2000,00:01:06.61,-25.88,-15.63,-954.59,1.09,-1.37,2.08,24.60,-3.15,-18.30,25.15,03/25/2020,14:56:26.300,0,0,0,0,0,0,0,9999,9.957,
01/01/2000,00:01:06.71,-61.04,7.32,-985.35,3.41,-0.24,3.09,24.60,-2.55,-21.15,25.15,03/25/2020,14:56:26.400,0,0,0,0,0,0,0,9999,9.957,
01/01/2000,00:01:06.81,-36.62,4.39,-942.38,3.42,-0.38,0.59,25.35,-2.25,-20.55,25.15,03/25/2020,14:56:26.500,0,0,0,0,0,0,0,9999,9.957,
01/01/2000,00:01:06.91,-30.76,-9.77,-982.42,0.81,-1.34,1.32,25.95,-1.80,-22.50,25.01,03/25/2020,14:56:26.600,0,0,0,0,0,0,0,9999,9.957,
01/01/2000,00:01:07.01,-17.58,-3.42,-962.40,5.06,-1.68,1.76,26.10,-1.95,-23.70,25.39,03/25/2020,14:56:26.700,0,0,0,0,0,0,0,9999,9.957,
01/01/2000,00:01:07.11,-28.81,7.32,-957.52,1.54,4.49,-1.37,25.35,-0.90,-21.60,25.06,03/25/2020,14:56:26.800,0,0,0,0,0,0,0,9999,9.957,
01/01/2000,00:01:07.21,-45.41,-16.11,-972.66,1.22,0.82,1.53,24.30,-1.50,-20.85,25.39,03/25/2020,14:56:26.900,0,0,0,0,0,0,0,9999,9.957,
01/01/2000,00:01:07.31,-41.99,-3.42,-981.45,0.24,2.49,1.38,23.25,-0.45,-20.85,25.44,03/25/2020,14:56:27.000,0,0,0,0,0,0,0,9999,9.957,
01/01/2000,00:01:07.41,-36.13,8.79,-958.98,3.59,2.11,-0.38,25.20,0.30,-22.80,25.39,03/25/2020,14:56:27.100,0,0,0,0,0,0,0,9999,9.957,
01/01/2000,00:01:07.51,-25.39,8.30,-965.33,1.0,1.31,0.06,26.40,-1.50,-22.95,25.20,03/25/2020,14:56:27.200,0,0,0,0,0,0,0,9999,9.957,
01/01/2000,00:01:07.61,-28.81,-2.44,-961.43,3.89,-1.56,-0.15,25.20,-2.55,-20.10,25.25,03/25/2020,14:56:27.300,0,0,0,0,0,0,0,9999,9.957,
01/01/2000,00:01:07.71,-51.27,7.32,-967.77,1.45,0.08,-0.70,26.25,-1.80,-22.50,25.20,03/25/2020,14:56:27.400,0,0,0,0,0,0,0,9999,9.959,
01/01/2000,00:01:07.81,-40.04,-5.37,-962.40,0.45,0.12,0.73,25.95,-1.35,-20.10,25.39,03/25/2020,14:56:27.500,0,0,0,0,0,0,0,9999,9.957,
01/01/2000,00:01:07.91,-44.92,0.98,-975.10,2.95,-0.18,2.65,24.15,-1.05,-21.45,25.39,03/25/2020,14:56:27.600,0,0,0,0,0,0,0,9999,9.957,
01/01/2000,00:01:08.01,-47.85,-0.98,-976.56,1.55,-1.07,-2.04,27.0,-0.60,-21.75,25.25,03/25/2020,14:56:27.700,0,0,0,0,0,0,0,9999,9.959,
01/01/2000,00:01:08.11,-39.55,-5.86,-962.40,2.91,-1.06,0.02,27.15,0.15,-22.35,24.87,03/25/2020,14:56:27.800,0,0,0,0,0,0,0,9999,9.959,
01/01/2000,00:01:08.21,-43.95,-1.46,-971.19,5.02,-3.48,-0.63,26.25,-2.55,-23.10,25.25,03/25/2020,14:56:27.900,0,0,0,0,0,0,0,9999,9.959,
01/01/2000,00:01:08.31,-37.60,12.21,-959.96,0.73,-0.19,1.69,25.05,-0.90,-20.85,25.20,03/25/2020,14:56:28.100,0,0,0,0,0,0,0,9999,9.941,
01/01/2000,00:01:08.51,-44.43,9.28,-971.68,-1.26,0.89,-0.72,27.15,-0.90,-22.35,25.39,03/25/2020,14:56:28.200,0,0,0,0,0,0,0,9999,9.943,
01/01/2000,00:01:08.61,-36.13,-1.46,-975.59,1.54,1.56,-0.55,24.60,-1.80,-20.70,25.35,03/25/2020,14:56:28.300,0,0,0,0,0,0,0,9999,9.943,
01/01/2000,00:01:08.71,-47.85,-7.81,-966.31,2.63,1.20,-2.58,27.15,-1.20,-21.90,25.20,03/25/2020,14:56:28.400,0,0,0,0,0,0,0,9999,9.944,
01/01/2000,00:01:08.81,-44.43,-4.88,-964.36,3.83,-2.57,2.32,24.30,-1.50,-19.20,25.35,03/25/2020,14:56:28.500,0,0,0,0,0,0,0,9999,9.945,
01/01/2000,00:01:08.91,-47.36,-4.39,-957.52,2.50,1.24,1.04,25.20,-1.05,-23.55,25.39,03/25/2020,14:56:28.600,0,0,0,0,0,0,0,9999,9.945,
01/01/2000,00:01:09.01,-27.34,2.93,-966.31,3.11,-1.0,0.15,25.95,-1.05,-21.45,25.39,03/25/2020,14:56:28.700,0,0,0,0,0,0,0,9999,9.945,
01/01/2000,00:01:09.11,-38.09,-5.37,-985.84,1.85,1.25,3.41,23.25,-1.20,-20.55,25.15,03/25/2020,14:56:28.800,0,0,0,0,0,0,0,9999,9.945,
01/01/2000,00:01:09.21,-57.13,2.93,-962.40,2.56,-0.43,-1.14,25.80,-2.25,-21.30,25.20,03/25/2020,14:56:28.900,0,0,0,0,0,0,0,9999,9.945,
01/01/2000,00:01:09.31,-39.55,3.42,-968.75,5.06,-0.95,-1.46,25.35,-0.45,-21.60,25.44,03/25/2020,14:56:29.000,0,0,0,0,0,0,0,9999,9.945,
01/01/2000,00:01:09.41,-40.53,3.91,-956.54,3.15,1.78,0.99,25.95,-1.35,-23.55,25.01,03/25/2020,14:56:29.100,0,0,0,0,0,0,0,9999,9.945,
01/01/2000,00:01:09.51,-44.43,3.42,-961.91,2.45,-0.86,1.07,23.55,-1.05,-20.70,25.54,03/25/2020,14:56:29.200,0,0,0,0,0,0,0,9999,9.945,
01/01/2000,00:01:09.61,-34.67,-1.46,-968.26,4.72,1.91,-0.66,26.40,-0.90,-21.60,25.15,03/25/2020,14:56:29.300,0,0,0,0,0,0,0,9999,9.945,
01/01/2000,00:01:09.71,-41.02,2.44,-958.01,3.21,-0.46,1.0,23.70,-2.70,-20.55,25.06,03/25/2020,14:56:29.400,0,0,0,0,0,0,0,9999,9.945,
01/01/2000,00:01:09.81,-31.25,-6.35,-977.54,1.99,0.38,-1.02,24.30,-1.50,-20.25,25.39,03/25/2020,14:56:29.500,0,0,0,0,0,0,0,9999,9.945,
01/01/2000,00:01:09.91,-48.34,-4.39,-970.70,1.01,2.08,-2.70,24.75,-2.25,-21.60,25.06,03/25/2020,14:56:29.600,0,0,0,0,0,0,0,9999,9.945,
01/01/2000,00:01:10.00,-53.71,-7.81,-960.94,0.65,0.03,0.78,25.05,-0.90,-21.60,25.15,03/25/2020,14:56:29.700,0,0,0,0,0,0,0,9999,9.945,
01/01/2000,00:01:10.10,-47.85,-2.44,-963.87,3.53,1.67,1.60,26.25,-0.60,-23.10,25.20,03/25/2020,14:56:29.800,0,0,0,0,0,0,0,9999,9.946,
01/01/2000,00:01:10.20,-34.18,-4.88,-963.38,3.22,-1.18,0.48,27.15,-2.25,-22.35,25.15,03/25/2020,14:56:29.900,0,0,0,0,0,0,0,9999,9.946,
01/01/2000,00:01:10.30,-38.57,-3.42,-960.94,0.32,0.08,-2.29,24.15,-1.35,-21.45,25.01,03/25/2020,14:56:30.000,0,0,0,0,0,0,0,9999,9.941,
01/01/2000,00:01:10.41,-26.37,-9.77,-963.87,-1.07,1.22,-1.0,26.10,-1.20,-21.90,25.39,03/25/2020,14:56:30.100,0,0,0,0,0,0,0,9999,9.944,
01/01/2000,00:01:10.51,-50.29,-13.18,-959.96,2.61,-1.73,1.18,26.85,-1.20,-22.35,25.39,03/25/2020,14:56:30.200,0,0,0,0,0,0,0,9999,9.944,
01/01/2000,00:01:10.61,-41.02,-0.98,-951.66,1.76,-0.76,-2.92,26.40,-0.90,-22.35,25.15,03/25/2020,14:56:30.300,0,0,0,0,0,0,0,9999,9.945,
01/01/2000,00:01:10.71,-61.04,-3.42,-979.00,2.38,-0.51,2.11,24.90,-2.55,-21.15,25.15,03/25/2020,14:56:30.400,0,0,0,0,0,0,0,9999,9.945,
01/01/2000,00:01:10.81,-35.64,3.42,-964.36,0.23,-0.44,-1.95,24.15,-1.80,-21.15,25.39,03/25/2020,14:56:30.500,0,0,0,0,0,0,0,9999,9.945,
01/01/2000,00:01:10.91,-37.60,-7.81,-986.82,2.31,1.09,-2.63,26.25,-1.80,-20.10,25.25,03/25/2020,14:56:30.600,0,0,0,0,0,0,0,9999,9.945,
01/01/2000,00:01:11.01,-29.79,1.95,-968.26,1.0,4.31,-2.34,27.0,0.0,-21.75,25.35,03/25/2020,14:56:30.700,0,0,0,0,0,0,0,9999,9.945,
01/01/2000,00:01:11.11,-48.34,-6.35,-988.28,2.87,-0.24,1.92,25.35,-1.50,-20.85,25.54,03/25/2020,14:56:30.800,0,0,0,0,0,0,0,9999,9.945,
01/01/2000,00:01:11.21,-23.44,2.44,-963.87,1.88,0.07,2.05,25.65,-0.60,-22.80,25.20,03/25/2020,14:56:30.900,0,0,0,0,0,0,0,9999,9.945,
01/01/2000,00:01:11.31,-30.76,-0.98,-972.66,4.98,0.38,0.23,24.30,-1.50,-23.40,25.20,03/25/2020,14:56:31.000,0,0,0,0,0,0,0,9999,9.945,
01/01/2000,00:01:11.41,-38.57,-1.95,-972.66,1.53,3.33,-1.18,23.70,-3.75,-19.80,25.44,03/25/2020,14:56:31.100,0,0,0,0,0,0,0,9999,9.945,
01/01/2000,00:01:11.51,-38.57,3.42,-970.21,0.63,-0.33,0.80,24.75,-2.25,-19.50,25.39,03/25/2020,14:56:31.200,0,0,0,0,0,0,0,9999,9.947,
01/01/2000,00:01:11.61,-45.90,-2.44,-965.82,2.14,-0.89,-2.55,26.85,-2.25,-22.95,25.20,03/25/2020,14:56:31.300,0,0,0,0,0,0,0,9999,9.947,
01/01/2000,00:01:11.71,-48.34,-0.49,-960.94,4.11,-0.71,0.98,25.80,-1.95,-24.45,25.59,03/25/2020,14:56:31.400,0,0,0,0,0,0,0,9999,9.947,
01/01/2000,00:01:11.81,-30.27,-11.72,-973.63,1.28,0.81,-0.38,22.95,-0.45,-20.55,25.39,03/25/2020,14:56:31.500,0,0,0,0,0,0,0,9999,9.947,
01/01/2000,00:01:11.91,-48.34,-8.79,-966.80,-1.40,1.80,-2.34,25.20,0.60,-22.50,25.25,03/25/2020,14:56:31.600,0,0,0,0,0,0,0,9999,9.947,
01/01/2000,00:01:12.01,-45.90,0.0,-961.43,1.95,-0.35,2.61,27.0,-1.80,-21.45,25.39,03/25/2020,14:56:31.700,0,0,0,0,0,0,0,9999,9.947,
01/01/2000,00:01:12.11,-46.39,-2.44,-963.38,1.40,0.24,1.81,24.60,-1.35,-20.10,25.44,03/25/2020,14:56:31.800,0,0,0,0,0,0,0,9999,9.947,
01/01/2000,00:01:12.21,-47.36,2.44,-957.52,1.29,1.58,0.40,24.90,-1.35,-21.15,25.44,03/25/2020,14:56:31.900,0,0,0,0,0,0,0,9999,9.947,
01/01/2000,00:01:12.31,-46.39,14.16,-961.91,1.63,-0.52,0.23,25.65,-1.35,-21.45,25.54,03/25/2020,14:56:32.000,0,0,0,0,0,0,0,9999,9.947,
01/01/2000,00:01:12.41,-30.27,2.44,-961.43,0.58,0.43,-0.72,26.85,-0.90,-22.95,25.35,03/25/2020,14:56:32.100,0,0,0,0,0,0,0,9999,9.947,
01/01/2000,00:01:12.51,-39.55,0.49,-978.03,-0.43,-0.47,0.11,26.40,-0.45,-21.90,25.39,03/25/2020,14:56:32.200,0,0,0,0,0,0,0,9999,9.947,
01/01/2000,00:01:12.61,-54.69,5.37,-964.84,1.93,-0.37,2.57,24.60,-3.15,-19.05,25.54,03/25/2020,14:56:32.300,0,0,0,0,0,0,0,9999,9.947,
01/01/2000,00:01:12.71,-35.16,10.74,-965.33,0.82,-0.05,0.27,25.35,-2.25,-21.60,25.20,03/25/2020,14:56:32.400,0,0,0,0,0,0,0,9999,9.948,
01/01/2000,00:01:12.80,-48.83,-8.30,-973.14,2.33,-0.41,-0.11,25.80,0.90,-23.70,25.39,03/25/2020,14:56:32.500,0,0,0,0,0,0,0,9999,9.948,
01/01/2000,00:01:12.90,-36.62,19.53,-982.42,3.62,-1.73,-2.50,24.60,-2.10,-19.35,25.15,03/25/2020,14:56:32.600,0,0,0,0,0,0,0,9999,9.948,
01/01/2000,00:01:13.00,-41.02,-4.39,-972.66,1.86,2.02,-1.60,26.25,-1.05,-21.75,25.35,03/25/2020,14:56:32.700,0,0,0,0,0,0,0,9999,9.948,
01/01/2000,00:01:13.10,-30.27,2.93,-967.29,1.87,-0.19,-0.07,25.95,-2.55,-23.85,25.25,03/25/2020,14:56:32.800,0,0,0,0,0,0,0,9999,9.948,
01/01/2000,00:01:13.20,-32.23,3.42,-971.19,2.03,2.40,-1.24,24.0,-2.70,-18.45,25.39,03/25/2020,14:56:32.900,0,0,0,0,0,0,0,9999,9.948,
01/01/2000,00:01:13.30,-34.18,-1.46,-970.70,2.47,3.60,2.35,23.25,-0.90,-19.80,25.39,03/25/2020,14:56:33.000,0,0,0,0,0,0,0,9999,9.944,
01/01/2000,00:01:13.41,-46.39,0.98,-964.84,1.16,-0.02,-0.54,24.75,-1.20,-23.40,25.39,03/25/2020,14:56:33.100,0,0,0,0,0,0,0,9999,9.947,
01/01/2000,00:01:13.51,-31.74,6.35,-962.89,1.05,-0.44,3.40,26.40,-1.50,-21.90,25.06,03/25/2020,14:56:33.200,0,0,0,0,0,0,0,9999,9.948,
01/01/2000,00:01:13.61,-28.32,4.39,-962.40,2.19,0.33,0.40,26.40,-1.50,-21.60,25.39,03/25/2020,14:56:33.300,0,0,0,0,0,0,0,9999,9.948,
01/01/2000,00:01:13.71,-37.11,4.88,-975.59,4.91,-1.86,0.02,25.35,-1.95,-20.25,25.44,03/25/2020,14:56:33.400,0,0,0,0,0,0,0,9999,9.948,
01/01/2000,00:01:13.81,-56.15,10.25,-968.75,1.87,-1.32,2.56,24.15,-1.05,-20.40,25.44,03/25/2020,14:56:33.500,0,0,0,0,0,0,0,9999,9.948,
01/01/2000,00:01:13.91,-30.76,16.11,-964.84,3.56,-1.27,-0.05,26.85,-0.15,-21.90,25.59,03/25/2020,14:56:33.600,0,0,0,0,0,0,0,9999,9.948,
01/01/2000,00:01:14.01,-41.50,4.88,-957.52,3.80,1.03,-0.95,25.80,-0.90,-22.95,25.59,03/25/2020,14:56:33.700,0,0,0,0,0,0,0,9999,9.949,
01/01/2000,00:01:14.11,-43.95,5.37,-958.98,3.15,3.96,0.01,24.30,-1.95,-21.30,25.44,03/25/2020,14:56:33.800,0,0,0,0,0,0,0,9999,9.949,
01/01/2000,00:01:14.21,-42.48,-11.23,-963.87,-0.12,0.99,-0.28,25.35,-1.50,-22.35,25.39,03/25/2020,14:56:33.900,0,0,0,0,0,0,0,9999,9.949,
01/01/2000,00:01:14.31,-46.88,19.04,-941.89,6.51,-1.47,1.50,24.60,-1.35,-19.05,25.59,03/25/2020,14:56:34.000,0,0,0,0,0,0,0,9999,9.949,
01/01/2000,00:01:14.41,-20.02,-11.72,-963.38,3.01,2.22,-0.50,23.85,-2.55,-20.40,25.15,03/25/2020,14:56:34.100,0,0,0,0,0,0,0,9999,9.949,
01/01/2000,00:01:14.51,-39.55,8.79,-976.07,0.88,0.05,-3.31,24.15,-3.15,-20.40,25.44,03/25/2020,14:56:34.200,0,0,0,0,0,0,0,9999,9.949,
01/01/2000,00:01:14.61,-30.76,2.44,-949.22,3.63,-0.79,-1.50,26.85,-1.20,-22.95,25.54,03/25/2020,14:56:34.300,0,0,0,0,0,0,0,9999,9.949,
01/01/2000,00:01:14.71,-43.95,-5.86,-969.73,0.15,0.89,-1.60,25.65,-0.60,-21.75,25.54,03/25/2020,14:56:34.400,0,0,0,0,0,0,0,9999,9.949,
01/01/2000,00:01:14.80,-39.06,-19.04,-967.29,1.85,0.24,0.22,24.0,-1.20,-19.20,25.68,03/25/2020,14:56:34.500,0,0,0,0,0,0,0,9999,9.949,
01/01/2000,00:01:14.90,-39.06,16.60,-972.17,0.17,0.05,-0.98,25.20,-2.10,-23.10,25.73,03/25/2020,14:56:34.600,0,0,0,0,0,0,0,9999,9.949,
01/01/2000,00:01:15.00,-32.71,-2.44,-971.68,2.79,-1.0,1.39,23.10,-2.55,-21.15,25.44,03/25/2020,14:56:34.700,0,0,0,0,0,0,0,9999,9.949,
01/01/2000,00:01:15.10,-37.60,1.95,-974.12,-0.38,0.47,-1.30,26.40,-0.45,-22.65,25.54,03/25/2020,14:56:34.800,0,0,0,0,0,0,0,9999,9.949,
01/01/2000,00:01:15.20,-40.53,-8.79,-970.70,4.04,-0.35,0.92,24.60,-2.10,-21.75,25.59,03/25/2020,14:56:34.900,0,0,0,0,0,0,0,9999,9.949,
01/01/2000,00:01:15.30,-35.16,4.39,-963.38,2.08,-0.14,-0.87,26.70,0.30,-22.20,25.59,03/25/2020,14:56:35.000,0,0,0,0,0,0,0,9999,9.945,
01/01/2000,00:01:15.41,-38.09,28.81,-961.91,2.48,0.51,-3.59,26.10,-0.90,-22.65,25.59,03/25/2020,14:56:35.100,0,0,0,0,0,0,0,9999,9.948,
01/01/2000,00:01:15.51,-36.13,1.46,-965.33,3.52,0.65,-1.04,25.95,-2.55,-21.45,25.44,03/25/2020,14:56:35.200,0,0,0,0,0,0,0,9999,9.948,
01/01/2000,00:01:15.61,-35.16,7.32,-962.89,2.95,0.06,0.14,24.60,-1.80,-20.70,25.68,03/25/2020,14:56:35.300,0,0,0,0,0,0,0,9999,9.948,
01/01/2000,00:01:15.71,-36.13,-7.32,-963.87,1.83,1.21,-0.08,26.10,-0.15,-22.95,25.44,03/25/2020,14:56:35.400,0,0,0,0,0,0,0,9999,9.948,
01/01/2000,00:01:15.81,-46.39,6.84,-977.54,1.30,0.39,-2.70,27.0,-1.05,-23.10,25.73,03/25/2020,14:56:35.500,0,0,0,0,0,0,0,9999,9.948,
01/01/2000,00:01:15.91,-26.37,-7.32,-966.31,3.83,1.84,1.43,25.95,-1.05,-22.20,25.39,03/25/2020,14:56:35.600,0,0,0,0,0,0,0,9999,9.948,
01/01/2000,00:01:16.01,-46.88,-2.93,-987.79,0.26,1.25,-4.52,22.80,-3.15,-19.65,25.68,03/25/2020,14:56:35.700,0,0,0,0,0,0,0,9999,9.949,
01/01/2000,00:01:16.11,-34.67,-17.09,-960.45,0.47,0.33,-2.81,24.0,-1.95,-20.25,25.25,03/25/2020,14:56:35.800,0,0,0,0,0,0,0,9999,9.949,
01/01/2000,00:01:16.21,-47.85,1.46,-962.40,1.65,1.44,-2.97,26.25,-1.35,-22.50,25.54,03/25/2020,14:56:35.900,0,0,0,0,0,0,0,9999,9.949,
01/01/2000,00:01:16.31,-33.20,-9.77,-967.29,2.78,-0.52,0.50,23.10,-2.10,-19.65,25.44,03/25/2020,14:56:36.000,0,0,0,0,0,0,0,9999,9.949,
01/01/2000,00:01:16.41,-43.95,-3.42,-955.57,0.91,0.71,1.13,26.40,0.45,-22.65,25.59,03/25/2020,14:56:36.100,0,0,0,0,0,0,0,9999,9.949,
01/01/2000,00:01:16.51,-27.34,-2.93,-962.89,2.03,-2.81,3.11,26.25,-1.05,-22.50,25.87,03/25/2020,14:56:36.200,0,0,0,0,0,0,0,9999,9.949,
01/01/2000,00:01:16.61,-31.74,4.39,-973.63,0.60,1.64,1.24,23.55,-1.05,-21.45,25.78,03/25/2020,14:56:36.300,0,0,0,0,0,0,0,9999,9.949,
01/01/2000,00:01:16.71,-35.64,4.39,-966.80,1.81,2.18,0.26,23.25,-0.90,-19.20,25.73,03/25/2020,14:56:36.400,0,0,0,0,0,0,0,9999,9.949,
01/01/2000,00:01:16.81,-37.11,-10.25,-970.21,1.45,2.76,-1.76,24.75,-0.15,-22.65,25.73,03/25/2020,14:56:36.500,0,0,0,0,0,0,0,9999,9.949,
01/01/2000,00:01:16.91,-39.55,1.46,-969.24,1.74,-0.57,0.21,25.65,0.30,-22.80,25.68,03/25/2020,14:56:36.600,0,0,0,0,0,0,0,9999,9.949,
01/01/2000,00:01:17.01,-38.09,7.81,-946.29,0.76,-1.07,1.42,26.10,-0.45,-22.35,25.54,03/25/2020,14:56:36.700,0,0,0,0,0,0,0,9999,9.949,
01/01/2000,00:01:17.11,-43.46,-2.93,-968.26,1.01,0.15,-0.63,24.90,-2.55,-19.65,25.68,03/25/2020,14:56:36.800,0,0,0,0,0,0,0,9999,9.949,
01/01/2000,00:01:17.21,-37.60,-9.77,-972.17,1.01,1.44,-1.46,24.15,-2.10,-19.65,25.39,03/25/2020,14:56:36.900,0,0,0,0,0,0,0,9999,9.949,
01/01/2000,00:01:17.31,-51.76,-6.35,-975.59,1.15,-0.44,3.31,27.45,-2.25,-21.60,25.54,03/25/2020,14:56:37.000,0,0,0,0,0,0,0,9999,9.949,
01/01/2000,00:01:17.41,-43.46,10.74,-962.89,2.54,3.26,-1.96,26.10,-0.45,-20.55,25.73,03/25/2020,14:56:37.100,0,0,0,0,0,0,0,9999,9.950,
01/01/2000,00:01:17.51,-36.13,-6.35,-962.89,3.61,-0.58,-1.24,25.65,-1.35,-21.15,25.44,03/25/2020,14:56:37.200,0,0,0,0,0,0,0,9999,9.950,
01/01/2000,00:01:17.61,-48.34,8.30,-976.07,2.53,-0.13,3.38,26.25,-2.10,-23.55,25.59,03/25/2020,14:56:37.300,0,0,0,0,0,0,0,9999,9.950,
01/01/2000,00:01:17.71,-50.29,1.95,-973.63,1.42,0.70,0.32,26.10,-1.50,-22.35,25.59,03/25/2020,14:56:37.400,0,0,0,0,0,0,0,9999,9.950,
01/01/2000,00:01:17.81,-48.34,2.93,-972.17,1.08,0.50,-0.55,23.25,-2.25,-20.55,25.54,03/25/2020,14:56:37.500,0,0,0,0,0,0,0,9999,9.950,
01/01/2000,00:01:17.91,-50.78,9.28,-963.38,1.70,-0.80,-0.21,25.20,-2.85,-19.35,25.87,03/25/2020,14:56:37.600,0,0,0,0,0,0,0,9999,9.951,
01/01/2000,00:01:18.01,-51.27,2.93,-971.19,3.19,0.42,0.74,26.10,-0.15,-21.90,25.54,03/25/2020,14:56:37.700,0,0,0,0,0,0,0,9999,9.951,
01/01/2000,00:01:18.11,-32.23,-1.46,-977.05,4.42,0.11,2.65,26.40,-1.50,-23.40,25.73,03/25/2020,14:56:37.800,0,0,0,0,0,0,0,9999,9.951,
01/01/2000,00:01:18.21,-36.62,0.0,-983.89,1.22,0.82,-1.79,24.15,-1.05,-20.70,25.25,03/25/2020,14:56:37.900,0,0,0,0,0,0,0,9999,9.951,
01/01/2000,00:01:18.31,-40.53,4.88,-968.75,-0.08,-0.27,1.79,25.95,-2.10,-23.10,25.78,03/25/2020,14:56:38.000,0,0,0,0,0,0,0,9999,9.951,
01/01/2000,00:01:18.41,-26.37,6.35,-967.29,1.64,2.27,-0.51,24.15,-2.55,-19.35,25.35,03/25/2020,14:56:38.100,0,0,0,0,0,0,0,9999,9.951,
01/01/2000,00:01:18.51,-57.13,15.14,-964.84,3.30,-0.78,1.57,23.70,-1.95,-21.30,25.44,03/25/2020,14:56:38.200,0,0,0,0,0,0,0,9999,9.952,
01/01/2000,00:01:18.61,-45.90,-1.46,-969.24,0.96,0.48,-0.95,24.30,-2.25,-20.55,25.39,03/25/2020,14:56:38.300,0,0,0,0,0,0,0,9999,9.952,
01/01/2000,00:01:18.71,-41.99,0.0,-968.75,2.64,-2.18,-0.80,27.0,-0.30,-22.50,25.73,03/25/2020,14:56:38.400,0,0,0,0,0,0,0,9999,9.952,
01/01/2000,00:01:18.81,-42.97,1.46,-969.73,3.24,-0.20,2.47,25.35,-0.45,-22.65,25.78,03/25/2020,14:56:38.500,0,0,0,0,0,0,0,9999,9.952,
01/01/2000,00:01:18.91,-38.57,-7.32,-970.70,2.84,2.40,-0.16,26.40,-1.20,-22.65,25.68,03/25/2020,14:56:38.600,0,0,0,0,0,0,0,9999,9.952,
01/01/2000,00:01:19.01,-29.30,9.77,-975.10,1.71,0.34,1.59,24.0,-1.20,-20.55,25.73,03/25/2020,14:56:38.700,0,0,0,0,0,0,0,9999,9.952,
01/01/2000,00:01:19.11,-43.46,-11.23,-969.73,5.06,-1.31,-0.06,24.30,-1.95,-21.30,25.73,03/25/2020,14:56:38.800,0,0,0,0,0,0,0,9999,9.952,
01/01/2000,00:01:19.21,-43.46,6.35,-957.52,1.79,0.67,5.29,26.70,0.0,-22.80,25.44,03/25/2020,14:56:38.900,0,0,0,0,0,0,0,9999,9.952,
01/01/2000,00:01:19.31,-40.53,-11.72,-960.94,1.18,0.47,1.0,25.35,-2.25,-22.35,25.68,03/25/2020,14:56:39.000,0,0,0,0,0,0,0,9999,9.952,
01/01/2000,00:01:19.41,-38.57,-5.86,-998.54,1.47,-0.58,-4.67,27.90,-2.25,-21.90,25.54,03/25/2020,14:56:39.100,0,0,0,0,0,0,0,9999,9.952,
01/01/2000,00:01:19.50,-36.62,-11.23,-961.91,3.25,2.73,-0.91,26.70,-1.35,-22.80,25.59,03/25/2020,14:56:39.200,0,0,0,0,0,0,0,9999,9.952,
01/01/2000,00:01:19.60,-44.43,7.32,-959.47,2.53,-0.66,0.53,22.50,0.0,-19.65,25.54,03/25/2020,14:56:39.300,0,0,0,0,0,0,0,9999,9.952,
01/01/2000,00:01:19.70,-41.99,7.81,-979.00,2.31,-0.90,-0.51,24.75,-1.20,-19.50,25.35,03/25/2020,14:56:39.400,0,0,0,0,0,0,0,9999,9.952,
01/01/2000,00:01:19.80,-45.90,0.98,-962.40,3.12,-1.55,1.53,24.30,-3.45,-20.25,25.59,03/25/2020,14:56:39.500,0,0,0,0,0,0,0,9999,9.952,
01/01/2000,00:01:19.90,-57.62,-3.42,-975.59,2.50,0.82,1.12,26.25,-0.60,-21.45,25.44,03/25/2020,14:56:39.600,0,0,0,0,0,0,0,9999,9.952,
01/01/2000,00:01:20.00,-32.23,3.42,-977.54,3.53,-0.67,1.18,25.05,-0.90,-22.65,25.78,03/25/2020,14:56:39.700,0,0,0,0,0,0,0,9999,9.952,
01/01/2000,00:01:20.10,-43.46,-4.39,-975.10,-2.34,1.40,-1.99,27.0,-1.80,-20.40,25.44,03/25/2020,14:56:39.800,0,0,0,0,0,0,0,9999,9.953,
01/01/2000,00:01:20.20,-30.27,-5.86,-977.05,0.85,2.79,-1.30,23.70,-1.50,-18.90,25.92,03/25/2020,14:56:39.900,0,0,0,0,0,0,0,9999,9.953,
01/01/2000,00:01:20.30,-45.90,9.28,-969.24,1.24,-2.11,0.96,24.90,-2.10,-20.10,25.78,03/25/2020,14:56:40.000,0,0,0,0,0,0,0,9999,9.949,
01/01/2000,00:01:20.41,-37.11,-1.95,-973.63,2.44,1.41,-1.14,26.25,-1.35,-23.10,25.39,03/25/2020,14:56:40.100,0,0,0,0,0,0,0,9999,9.953,
01/01/2000,00:01:20.51,-46.39,-4.88,-971.68,2.93,0.79,0.83,24.15,-0.60,-21.45,25.78,03/25/2020,14:56:40.200,0,0,0,0,0,0,0,9999,9.953,
01/01/2000,00:01:20.61,-46.39,7.81,-961.43,1.0,0.64,-1.20,26.70,-0.60,-22.50,25.68,03/25/2020,14:56:40.300,0,0,0,0,0,0,0,9999,9.953,
01/01/2000,00:01:20.71,-25.88,-1.95,-971.19,3.30,-2.66,-1.84,24.0,-1.95,-19.80,25.44,03/25/2020,14:56:40.400,0,0,0,0,0,0,0,9999,9.953,
01/01/2000,00:01:20.81,-34.67,-6.35,-964.36,1.38,-1.88,0.75,25.20,-0.60,-20.40,25.73,03/25/2020,14:56:40.500,0,0,0,0,0,0,0,9999,9.953,
01/01/2000,00:01:20.91,-35.64,3.91,-973.14,1.68,1.79,-0.26,24.60,-3.60,-19.65,25.73,03/25/2020,14:56:40.600,0,0,0,0,0,0,0,9999,9.953,
01/01/2000,00:01:21.01,-42.97,3.42,-968.26,-0.76,1.47,-0.02,26.85,-0.90,-22.95,25.73,03/25/2020,14:56:40.700,0,0,0,0,0,0,0,9999,9.953,
01/01/2000,00:01:21.11,-50.29,-1.46,-974.61,2.74,3.50,-0.98,26.25,-1.05,-22.50,25.73,03/25/2020,14:56:40.800,0,0,0,0,0,0,0,9999,9.953,
01/01/2000,00:01:21.21,-27.83,-4.39,-963.38,3.12,1.51,-0.76,26.10,-1.20,-22.65,25.73,03/25/2020,14:56:40.900,0,0,0,0,0,0,0,9999,9.953,
01/01/2000,00:01:21.31,-44.43,-12.21,-966.80,4.04,-0.69,2.50,23.10,-2.55,-19.65,25.44,03/25/2020,14:56:41.000,0,0,0,0,0,0,0,9999,9.953,
01/01/2000,00:01:21.41,-43.95,8.30,-966.31,0.92,1.21,0.11,24.90,-0.30,-21.15,25.87,03/25/2020,14:56:41.100,0,0,0,0,0,0,0,9999,9.953,
01/01/2000,00:01:21.51,-40.53,-5.37,-973.63,2.27,-0.26,-2.43,25.65,0.0,-23.10,25.68,03/25/2020,14:56:41.200,0,0,0,0,0,0,0,9999,9.953,
01/01/2000,00:01:21.60,-44.92,-15.14,-971.68,4.59,1.0,-1.18,24.0,-2.25,-19.50,25.87,03/25/2020,14:56:41.300,0,0,0,0,0,0,0,9999,9.953,
01/01/2000,00:01:21.71,-62.01,5.86,-967.29,1.12,0.58,-3.83,26.40,-1.50,-22.95,25.44,03/25/2020,14:56:41.400,0,0,0,0,0,0,0,9999,9.953,
01/01/2000,00:01:21.80,-42.48,0.98,-961.91,3.84,3.76,-0.56,26.40,0.15,-22.65,25.73,03/25/2020,14:56:41.500,0,0,0,0,0,0,0,9999,9.954,
01/01/2000,00:01:21.90,-30.76,1.95,-965.82,1.89,-0.47,1.08,25.05,-1.95,-19.50,25.73,03/25/2020,14:56:41.600,0,0,0,0,0,0,0,9999,9.954,
01/01/2000,00:01:22.00,-43.46,-2.93,-959.96,-1.45,2.17,-1.37,23.70,-1.95,-19.80,25.78,03/25/2020,14:56:41.700,0,0,0,0,0,0,0,9999,9.954,
01/01/2000,00:01:22.10,-48.83,-5.86,-968.26,4.08,1.40,1.15,26.40,-0.90,-22.65,25.73,03/25/2020,14:56:41.800,0,0,0,0,0,0,0,9999,9.954,
01/01/2000,00:01:22.20,-49.80,-7.81,-975.59,1.76,-1.10,2.21,27.30,0.0,-22.20,25.87,03/25/2020,14:56:41.900,0,0,0,0,0,0,0,9999,9.954,
01/01/2000,00:01:22.30,-35.16,1.95,-954.59,0.91,1.06,1.62,26.40,-1.50,-23.70,25.92,03/25/2020,14:56:42.000,0,0,0,0,0,0,0,9999,9.950,
01/01/2000,00:01:22.42,-33.20,17.09,-962.89,1.87,-1.65,1.56,24.90,-0.30,-23.10,25.59,03/25/2020,14:56:42.100,0,0,0,0,0,0,0,9999,9.953,
01/01/2000,00:01:22.52,-46.88,-1.46,-963.87,2.89,1.61,-6.31,25.05,-3.45,-18.90,25.68,03/25/2020,14:56:42.200,0,0,0,0,0,0,0,9999,9.953,
01/01/2000,00:01:22.62,-53.22,0.98,-966.80,3.76,-0.25,1.79,26.25,0.0,-21.45,25.78,03/25/2020,14:56:42.300,0,0,0,0,0,0,0,9999,9.953,
01/01/2000,00:01:22.72,-42.48,-6.84,-972.66,2.27,0.03,-0.48,26.40,-1.50,-22.95,25.68,03/25/2020,14:56:42.400,0,0,0,0,0,0,0,9999,9.953,
01/01/2000,00:01:22.82,-48.83,-14.16,-958.50,2.69,0.12,3.97,25.35,-1.95,-19.80,25.39,03/25/2020,14:56:42.500,0,0,0,0,0,0,0,9999,9.953,
01/01/2000,00:01:22.92,-41.99,-2.44,-958.98,0.21,0.85,-1.89,27.15,-1.20,-22.65,25.87,03/25/2020,14:56:42.600,0,0,0,0,0,0,0,9999,9.953,
01/01/2000,00:01:23.02,-46.88,5.37,-966.80,2.47,-0.88,0.83,23.85,36.60,-22.80,25.87,03/25/2020,14:56:42.700,0,0,0,0,0,0,0,9999,9.953,
01/01/2000,00:01:23.11,-41.50,3.91,-976.07,1.89,1.78,-1.55,24.30,-3.45,-20.85,25.78,03/25/2020,14:56:42.800,0,0,0,0,0,0,0,9999,9.953,
01/01/2000,00:01:23.21,-33.69,-3.91,-970.70,0.02,1.75,-1.45,25.65,-1.05,-19.35,25.68,03/25/2020,14:56:42.900,0,0,0,0,0,0,0,9999,9.953,
01/01/2000,00:01:23.31,-38.57,2.93,-965.33,1.69,-1.43,-1.37,25.35,-1.50,-22.35,25.73,03/25/2020,14:56:43.000,0,0,0,0,0,0,0,9999,9.953,
01/01/2000,00:01:23.41,-46.39,-0.49,-979.98,2.47,0.88,-1.89,25.95,0.0,-23.10,25.73,03/25/2020,14:56:43.100,0,0,0,0,0,0,0,9999,9.953,
01/01/2000,00:01:23.51,-46.88,-2.44,-964.84,3.35,-0.26,0.47,24.90,-2.55,-21.15,25.59,03/25/2020,14:56:43.200,0,0,0,0,0,0,0,9999,9.953,
01/01/2000,00:01:23.61,-45.90,5.37,-975.59,2.85,-0.82,-0.18,24.0,-1.50,-19.50,25.59,03/25/2020,14:56:43.300,0,0,0,0,0,0,0,9999,9.953,
01/01/2000,00:01:23.71,-31.74,-8.30,-963.87,4.11,1.87,1.09,24.75,-3.0,-21.30,25.78,03/25/2020,14:56:43.400,0,0,0,0,0,0,0,9999,9.953,
01/01/2000,00:01:23.81,-41.99,12.70,-973.63,3.32,0.36,0.82,25.80,-0.90,-23.40,25.92,03/25/2020,14:56:43.500,0,0,0,0,0,0,0,9999,9.953,
01/01/2000,00:01:23.91,-40.53,6.84,-967.77,0.44,1.40,-1.68,24.60,-1.05,-20.70,25.54,03/25/2020,14:56:43.600,0,0,0,0,0,0,0,9999,9.954,
01/01/2000,00:01:24.01,-44.43,-5.37,-961.91,4.50,-1.93,-0.58,25.35,-1.20,-22.65,25.73,03/25/2020,14:56:43.700,0,0,0,0,0,0,0,9999,9.954,
01/01/2000,00:01:24.11,-30.27,3.42,-972.17,0.74,2.27,1.61,26.10,-1.20,-23.40,25.92,03/25/2020,14:56:43.800,0,0,0,0,0,0,0,9999,9.954,
01/01/2000,00:01:24.21,-25.88,-9.77,-955.57,3.60,-1.08,1.58,24.15,-2.10,-19.35,25.78,03/25/2020,14:56:43.900,0,0,0,0,0,0,0,9999,9.954,
01/01/2000,00:01:24.31,-61.04,-1.46,-976.56,3.39,-1.21,1.63,23.25,-1.95,-20.25,25.54,03/01/2023,14:56:44.000,0,0,0,0,0,0,0,9999,9.954,
01/01/2000,00:01:24.41,-37.60,5.37,-987.79,2.48,-0.62,0.05,26.25,-1.35,-22.80,25.68,03/01/2023,14:56:44.100,0,0,0,0,0,0,0,9999,9.954,
01/01/2000,00:01:24.51,-23.93,-4.88,-978.03,2.83,-3.37,-0.41,25.05,-1.50,-22.35,25.54,03/01/2023,14:56:44.200,0,0,0,0,0,0,0,9999,9.954,
01/01/2000,00:01:24.61,-30.76,-17.09,-973.14,3.81,-0.81,1.50,25.65,-0.60,-22.20,25.73,03/01/2023,14:56:44.300,0,0,0,0,0,0,0,9999,9.954,
01/01/2000,00:01:24.71,-47.85,2.93,-979.98,2.93,0.0,0.15,25.35,0.15,-20.55,26.06,03/01/2023,14:56:44.400,0,0,0,0,0,0,0,9999,9.954,
01/01/2000,00:01:24.81,-31.25,-13.18,-978.03,-0.47,0.92,-0.65,24.90,-1.80,-19.05,25.78,03/01/2023,14:56:44.500,0,0,0,0,0,0,0,9999,9.954,
01/01/2000,00:01:24.91,-59.08,2.93,-959.47,1.69,1.27,0.99,24.0,-2.25,-20.25,25.87,03/01/2023,14:56:44.700,0,0,0,0,0,0,0,9999,9.941,
01/01/2000,00:01:25.10,-52.73,-3.42,-964.84,2.58,2.57,2.53,24.75,0.90,-21.90,25.87,03/01/2023,14:56:44.800,0,0,0,0,0,0,0,9999,9.943,
01/01/2000,00:01:25.21,-39.06,-8.79,-978.03,2.24,-0.13,-0.20,23.85,-1.80,-20.40,25.73,03/01/2023,14:56:44.900,0,0,0,0,0,0,0,9999,9.943,
01/01/2000,00:01:25.30,-38.57,2.93,-972.66,0.60,1.84,-0.73,25.35,-1.20,-21.90,25.73,03/01/2023,14:56:45.000,0,0,0,0,0,0,0,9999,9.940,
01/01/2000,00:01:25.41,-44.92,-7.81,-959.47,0.85,1.63,-0.44,26.40,-2.25,-21.30,25.78,03/01/2023,14:56:45.100,0,0,0,0,0,0,0,9999,9.942,
01/01/2000,00:01:25.51,-50.29,-3.42,-974.61,4.14,-0.48,-0.88,25.05,-2.25,-20.25,25.87,03/01/2023,14:56:45.200,0,0,0,0,0,0,0,9999,9.942,
01/01/2000,00:01:25.61,-42.48,-3.42,-965.33,0.56,0.98,-1.40,25.95,-1.05,-22.20,25.68,03/01/2023,14:56:45.300,0,0,0,0,0,0,0,9999,9.943,
01/01/2000,00:01:25.71,-37.60,4.39,-980.96,1.28,-0.06,-1.51,26.70,-0.60,-22.50,25.92,03/01/2023,14:56:45.400,0,0,0,0,0,0,0,9999,9.943,
01/01/2000,00:01:25.81,-38.57,-1.46,-962.89,1.85,-1.23,-1.95,26.70,-1.80,-23.10,25.87,03/01/2023,14:56:45.500,0,0,0,0,0,0,0,9999,9.943,
01/01/2000,00:01:25.91,-41.50,0.0,-958.98,1.55,0.74,-1.09,24.90,-2.10,-20.40,25.87,03/01/2023,14:56:45.600,0,0,0,0,0,0,0,9999,9.943,
01/01/2000,00:01:26.01,-46.39,-0.98,-964.36,1.11,0.87,0.55,25.35,-1.95,-19.80,25.78,03/01/2023,14:56:45.700,0,0,0,0,0,0,0,9999,9.943,
01/01/2000,00:01:26.11,-38.09,-5.86,-966.31,1.32,0.63,-1.31,25.20,-1.35,-19.05,25.92,03/01/2023,14:56:45.800,0,0,0,0,0,0,0,9999,9.943,
01/01/2000,00:01:26.21,-29.79,1.46,-968.26,1.02,-0.71,-1.07,25.05,-0.45,-22.95,25.87,03/01/2023,14:56:45.900,0,0,0,0,0,0,0,9999,9.943,
01/01/2000,00:01:26.31,-42.48,-5.37,-972.66,3.31,0.73,1.77,27.30,-3.60,-21.15,25.78,03/01/2023,14:56:46.000,0,0,0,0,0,0,0,9999,9.943,
01/01/2000,00:01:26.41,-37.60,3.42,-973.14,5.35,1.22,3.67,26.85,-1.20,-21.30,25.97,03/01/2023,14:56:46.100,0,0,0,0,0,0,0,9999,9.943,
01/01/2000,00:01:26.51,-44.92,5.37,-971.19,3.76,1.40,-2.09,26.25,-1.05,-22.80,25.68,03/01/2023,14:56:46.200,0,0,0,0,0,0,0,9999,9.943,
01/01/2000,00:01:26.61,-36.62,3.91,-967.77,3.24,0.41,-0.28,24.75,-4.20,-19.80,25.92,03/01/2023,14:56:46.300,0,0,0,0,0,0,0,9999,9.943,
01/01/2000,00:01:26.71,-41.99,-2.93,-970.21,-0.49,1.50,-1.34,23.25,-2.25,-20.25,25.87,03/01/2023,14:56:46.400,0,0,0,0,0,0,0,9999,9.943,
01/01/2000,00:01:26.81,-36.13,9.28,-978.03,1.63,0.32,-0.35,26.25,-1.35,-22.80,25.78,03/01/2023,14:56:46.500,0,0,0,0,0,0,0,9999,9.943,
01/01/2000,00:01:26.91,-43.46,-7.81,-964.84,2.81,-1.64,1.05,25.95,-0.60,-22.80,25.68,03/01/2023,14:56:46.600,0,0,0,0,0,0,0,9999,9.943,
01/01/2000,00:01:27.01,-40.53,1.46,-975.59,1.32,0.80,-0.13,24.90,-1.05,-19.35,25.73,03/01/2023,14:56:46.700,0,0,0,0,0,0,0,9999,9.943,
01/01/2000,00:01:27.11,-48.34,-4.88,-962.89,3.30,1.99,-0.09,26.40,-1.50,-22.65,25.92,03/01/2023,14:56:46.800,0,0,0,0,0,0,0,9999,9.944,
01/01/2000,00:01:27.21,-41.99,14.16,-965.33,2.79,-0.38,-0.98,25.35,-2.70,-20.85,25.59,03/01/2023,14:56:46.900,0,0,0,0,0,0,0,9999,9.944,
01/01/2000,00:01:27.31,-37.60,-6.84,-979.49,3.83,-3.51,3.16,23.85,-1.80,-20.70,25.97,03/01/2023,14:56:47.000,0,0,0,0,0,0,0,9999,9.944,
01/01/2000,00:01:27.41,-49.80,-2.44,-972.66,4.56,1.79,-2.0,24.75,-1.20,-20.55,25.92,03/01/2023,14:56:47.100,0,0,0,0,0,0,0,9999,9.944,
01/01/2000,00:01:27.51,-43.95,-11.72,-966.80,1.86,-0.61,-1.78,26.10,-1.20,-23.40,26.06,03/01/2023,14:56:47.200,0,0,0,0,0,0,0,9999,9.944,
01/01/2000,00:01:27.61,-46.88,9.77,-957.52,4.01,-0.04,2.10,25.95,-0.60,-21.75,25.87,03/01/2023,14:56:47.300,0,0,0,0,0,0,0,9999,9.944,
01/01/2000,00:01:27.71,-47.85,-7.32,-962.89,5.60,-0.40,2.45,25.65,-0.60,-22.20,25.87,03/01/2023,14:56:47.400,0,0,0,0,0,0,0,9999,9.944,
01/01/2000,00:01:27.81,-40.04,5.86,-964.84,3.40,0.05,-2.02,22.65,-2.70,-18.15,26.06,03/01/2023,14:56:47.500,0,0,0,0,0,0,0,9999,9.943,
01/01/2000,00:01:27.91,-54.20,-4.39,-961.43,2.59,0.08,0.13,25.95,-1.80,-19.05,25.87,03/01/2023,14:56:47.600,0,0,0,0,0,0,0,9999,9.944,
01/01/2000,00:01:28.01,-44.43,12.70,-964.84,-1.34,1.70,-1.76,26.10,-0.45,-22.35,25.97,03/01/2023,14:56:47.700,0,0,0,0,0,0,0,9999,9.945,
01/01/2000,00:01:28.11,-43.95,-0.49,-959.96,1.63,-1.58,1.31,27.15,-0.90,-23.70,25.73,03/01/2023,14:56:47.800,0,0,0,0,0,0,0,9999,9.944,
01/01/2000,00:01:28.21,-39.06,0.98,-968.26,2.47,-0.48,3.89,24.90,-0.60,-19.35,25.59,03/01/2023,14:56:47.900,0,0,0,0,0,0,0,9999,9.944,
01/01/2000,00:01:28.31,-39.55,5.86,-985.35,2.37,-0.80,-0.64,25.95,-0.60,-22.80,25.92,03/01/2023,14:56:48.000,0,0,0,0,0,0,0,9999,9.945,
01/01/2000,00:01:28.41,-34.67,3.42,-956.05,0.60,1.74,-1.65,22.20,-2.70,-19.80,25.97,03/01/2023,14:56:48.100,0,0,0,0,0,0,0,9999,9.944,
01/01/2000,00:01:28.51,-53.22,13.67,-970.21,0.63,2.23,-0.22,24.30,-2.25,-19.50,25.87,03/01/2023,14:56:48.200,0,0,0,0,0,0,0,9999,9.946,
01/01/2000,00:01:28.61,-38.09,3.91,-964.36,1.76,0.76,-1.11,24.60,-1.35,-20.10,25.68,03/01/2023,14:56:48.300,0,0,0,0,0,0,0,9999,9.946,
01/01/2000,00:01:28.71,-31.74,-0.49,-964.84,0.93,-0.63,1.58,26.10,-0.45,-22.65,25.92,03/01/2023,14:56:48.400,0,0,0,0,0,0,0,9999,9.946,
01/01/2000,00:01:28.81,-38.57,-0.98,-970.70,4.45,-1.23,0.24,26.10,-0.45,-22.35,26.06,03/01/2023,14:56:48.500,0,0,0,0,0,0,0,9999,9.946,
01/01/2000,00:01:28.91,-33.20,1.95,-966.80,2.26,1.0,1.97,24.0,-2.25,-20.55,26.11,03/01/2023,14:56:48.600,0,0,0,0,0,0,0,9999,9.946,
01/01/2000,00:01:29.01,-55.18,11.23,-950.20,1.76,0.24,0.29,23.85,-2.55,-21.15,25.59,03/01/2023,14:56:48.700,0,0,0,0,0,0,0,9999,9.946,
01/01/2000,00:01:29.11,-46.88,-7.81,-985.35,3.85,-0.93,1.36,24.30,-1.50,-19.80,25.97,03/01/2023,14:56:48.800,0,0,0,0,0,0,0,9999,9.946,
01/01/2000,00:01:29.21,-33.69,-2.93,-949.22,1.15,0.89,1.18,25.65,-1.05,-21.45,25.87,03/01/2023,14:56:48.900,0,0,0,0,0,0,0,9999,9.946,
01/01/2000,00:01:29.31,-25.88,-2.44,-956.05,2.90,-0.21,1.52,24.30,-1.95,-20.85,26.11,03/01/2023,14:56:49.000,0,0,0,0,0,0,0,9999,9.946,
01/01/2000,00:01:29.41,-45.90,-0.98,-971.19,2.61,-0.23,2.15,24.75,-1.95,-21.90,25.73,03/01/2023,14:56:49.100,0,0,0,0,0,0,0,9999,9.946,
01/01/2000,00:01:29.51,-31.25,8.79,-958.98,2.23,0.08,2.20,26.40,-0.90,-22.95,25.87,03/01/2023,14:56:49.200,0,0,0,0,0,0,0,9999,9.946,
01/01/2000,00:01:29.61,-49.32,11.23,-960.94,0.47,-1.0,0.76,24.15,-1.05,-20.10,25.78,03/01/2023,14:56:49.300,0,0,0,0,0,0,0,9999,9.946,
01/01/2000,00:01:29.71,-37.60,8.30,-963.87,0.88,0.46,-1.24,23.85,-2.10,-19.65,25.97,03/01/2023,14:56:49.400,0,0,0,0,0,0,0,9999,9.946,
01/01/2000,00:01:29.80,-27.34,-1.46,-967.29,2.31,-1.22,-1.08,27.15,-0.90,-22.95,25.87,03/01/2023,14:56:49.500,0,0,0,0,0,0,0,9999,9.946,
01/01/2000,00:01:29.90,-43.95,-1.95,-966.31,0.80,1.33,-0.47,25.05,-0.90,-22.95,25.97,03/01/2023,14:56:49.600,0,0,0,0,0,0,0,9999,9.946,
01/01/2000,00:01:30.00,-41.50,4.39,-963.38,1.24,0.01,1.71,26.40,-0.15,-23.70,26.06,03/01/2023,14:56:49.700,0,0,0,0,0,0,0,9999,9.947,
01/01/2000,00:01:30.10,-47.85,-7.32,-972.66,2.55,0.95,3.49,25.80,-2.70,-19.80,25.68,03/01/2023,14:56:49.800,0,0,0,0,0,0,0,9999,9.947,
01/01/2000,00:01:30.20,-35.16,6.35,-976.56,1.62,-1.95,-0.15,24.15,-0.60,-20.40,25.87,03/01/2023,14:56:49.900,0,0,0,0,0,0,0,9999,9.947,
01/01/2000,00:01:30.30,-32.23,-0.49,-958.01,-1.66,1.43,1.43,24.15,-1.35,-19.65,25.97,03/01/2023,14:56:50.000,0,0,0,0,0,0,0,9999,9.943,
01/01/2000,00:01:30.41,-50.78,-6.35,-968.26,3.69,-1.34,2.60,25.95,-1.05,-22.80,25.92,03/01/2023,14:56:50.100,0,0,0,0,0,0,0,9999,9.946,
01/01/2000,00:01:30.51,-48.34,-9.77,-977.54,2.94,0.41,-0.60,27.30,-1.05,-22.80,25.97,03/01/2023,14:56:50.200,0,0,0,0,0,0,0,9999,9.946,
01/01/2000,00:01:30.61,-49.32,-10.25,-974.61,2.27,0.47,2.53,26.25,-2.10,-21.75,25.97,03/01/2023,14:56:50.300,0,0,0,0,0,0,0,9999,9.947,
01/01/2000,00:01:30.71,-28.81,3.42,-975.59,2.66,1.89,-1.46,24.90,-2.85,-20.70,26.06,03/01/2023,14:56:50.400,0,0,0,0,0,0,0,9999,9.946,
01/01/2000,00:01:30.81,-33.69,5.37,-936.04,0.25,1.05,0.69,23.55,-1.35,-19.65,25.68,03/01/2023,14:56:50.500,0,0,0,0,0,0,0,9999,9.946,
01/01/2000,00:01:30.91,-42.48,-1.95,-966.31,1.63,0.55,-1.40,26.85,-0.15,-21.90,25.97,03/01/2023,14:56:50.600,0,0,0,0,0,0,0,9999,9.947,
01/01/2000,00:01:31.01,-27.34,11.72,-978.52,0.76,-1.04,1.06,26.10,0.45,-22.65,25.73,03/01/2023,14:56:50.700,0,0,0,0,0,0,0,9999,9.946,
01/01/2000,00:01:31.11,-38.57,0.0,-978.03,-0.15,1.44,-0.21,27.0,-1.05,-22.80,26.06,03/01/2023,14:56:50.800,0,0,0,0,0,0,0,9999,9.947,
01/01/2000,00:01:31.21,-44.92,-5.86,-970.70,4.70,-2.08,-1.36,23.70,-1.95,-20.55,25.92,03/01/2023,14:56:50.900,0,0,0,0,0,0,0,9999,9.947,
01/01/2000,00:01:31.31,-39.55,-2.44,-986.82,2.21,-0.47,2.07,22.80,-3.15,-19.05,25.73,03/01/2023,14:56:51.000,0,0,0,0,0,0,0,9999,9.946,
01/01/2000,00:01:31.41,-41.50,9.28,-960.94,2.46,0.14,0.76,25.65,-1.35,-20.10,26.21,03/01/2023,14:56:51.100,0,0,0,0,0,0,0,9999,9.947,
