rtcDate,rtcTime,aX,aY,aZ,gX,gY,gZ,mX,mY,mZ,imu_degC,gps_Date,gps_Time,gps_Lat,gps_Long,gps_Alt,gps_SIV,gps_FixType,gps_GroundSpeed,gps_Heading,gps_pDOP,output_Hz,
01/01/2000,00:00:02.92,12.70,-260.25,-1036.62,-28.70,18.47,20.88,10.20,-51.90,-54.30,16.62,03/22/2020,00:00:01.900,0,0,0,0,0,0,0,9999,14.286,
01/01/2000,00:00:03.02,-575.20,-2000.0,-1529.79,-53.16,57.73,250.13,6.45,-53.55,-50.25,16.58,03/22/2020,00:00:02.000,0,0,0,0,0,0,0,9999,11.765,
01/01/2000,00:00:03.12,77.15,-679.20,-1059.08,37.24,-33.68,59.70,10.20,-53.85,-52.80,16.43,03/22/2020,00:00:02.100,0,0,0,0,0,0,0,9999,11.111,
01/01/2000,00:00:03.22,-100.59,-2.44,-881.84,22.45,75.97,250.13,14.40,-62.70,-47.55,16.58,03/22/2020,00:00:02.200,0,0,0,0,0,0,0,9999,10.811,
01/01/2000,00:00:03.32,-581.05,-488.77,-518.07,-1.79,9.25,250.13,30.30,-65.25,-49.65,16.43,03/22/2020,00:00:02.300,0,0,0,0,0,0,0,9999,10.638,
01/01/2000,00:00:03.42,-314.94,-411.13,-855.96,-3.99,19.11,119.85,42.90,-61.80,-49.05,16.62,03/22/2020,00:00:02.400,0,0,0,0,0,0,0,9999,10.526,
01/01/2000,00:00:03.52,-626.46,-173.83,-780.27,-48.98,-9.07,103.75,49.65,-58.95,-49.35,16.58,03/22/2020,00:00:02.500,0,0,0,0,0,0,0,9999,10.448,
01/01/2000,00:00:03.62,-332.52,-80.57,-976.07,-31.01,37.73,78.69,50.25,-51.60,-52.50,16.38,03/22/2020,00:00:02.600,0,0,0,0,0,0,0,9999,10.390,
01/01/2000,00:00:03.72,-277.34,136.23,-898.44,8.76,24.95,28.84,51.45,-50.40,-54.30,16.82,03/22/2020,00:00:02.700,0,0,0,0,0,0,0,9999,10.465,
01/01/2000,00:00:03.82,-290.53,-3.91,-924.80,28.65,-13.77,14.31,53.70,-48.75,-54.75,16.62,03/22/2020,00:00:02.800,0,0,0,0,0,0,0,9999,10.417,
01/01/2000,00:00:03.92,-184.08,19.53,-1001.95,-59.62,-15.50,16.47,50.70,-47.85,-54.30,16.77,03/22/2020,00:00:02.900,0,0,0,0,0,0,0,9999,10.377,
01/01/2000,00:00:04.02,-510.74,-189.94,-1002.93,22.11,-8.31,-13.47,54.45,-45.90,-56.85,16.96,03/22/2020,00:00:03.000,0,0,0,0,0,0,0,9999,10.345,
01/01/2000,00:00:04.12,-61.04,-98.63,-563.96,1.88,7.21,40.18,56.25,-45.90,-55.20,16.72,03/22/2020,00:00:03.100,0,0,0,0,0,0,0,9999,10.317,
01/01/2000,00:00:04.22,-342.77,13.67,-1160.16,17.42,11.63,26.51,51.90,-46.20,-53.70,16.77,03/22/2020,00:00:03.200,0,0,0,0,0,0,0,9999,10.294,
01/01/2000,00:00:04.32,-1709.47,-195.31,-589.36,-27.85,11.13,30.35,54.75,-45.15,-54.0,16.96,03/22/2020,00:00:03.300,0,0,0,0,0,0,0,9999,10.274,
01/01/2000,00:00:04.42,-665.53,-103.52,-1135.74,56.82,-42.53,-0.74,57.45,-44.55,-54.30,16.91,03/22/2020,00:00:03.400,0,0,0,0,0,0,0,9999,10.323,
01/01/2000,00:00:04.51,-370.12,-512.70,-1086.43,-38.97,77.70,58.54,60.90,-46.20,-50.85,17.10,03/22/2020,00:00:03.500,0,0,0,0,0,0,0,9999,10.241,
01/01/2000,00:00:04.61,-417.48,137.21,-274.41,-67.77,-15.05,108.20,60.0,-35.70,-53.25,17.25,03/22/2020,00:00:03.600,0,0,0,0,0,0,0,9999,10.227,
01/01/2000,00:00:04.71,-2000.0,1249.02,-2000.0,102.62,-41.95,3.37,64.05,-31.35,-54.75,16.91,03/22/2020,00:00:03.700,0,0,0,0,0,0,0,9999,10.215,
01/01/2000,00:00:04.81,-667.48,-9.28,-716.80,90.80,-53.92,-7.11,63.90,-38.55,-47.55,17.25,03/22/2020,00:00:03.800,0,0,0,0,0,0,0,9999,10.204,
01/01/2000,00:00:04.91,-215.33,-271.00,-780.76,112.68,-50.22,20.98,63.60,-40.50,-47.10,17.34,03/22/2020,00:00:03.900,0,0,0,0,0,0,0,9999,10.194,
01/01/2000,00:00:05.01,-502.93,20.02,-978.03,1.79,-3.63,21.07,64.05,-41.70,-46.95,17.01,03/22/2020,00:00:04.000,0,0,0,0,0,0,0,9999,10.185,
01/01/2000,00:00:05.11,-362.79,-186.04,-1143.55,-18.11,44.27,20.44,65.55,-42.15,-49.05,17.15,03/22/2020,00:00:04.100,0,0,0,0,0,0,0,9999,10.177,
01/01/2000,00:00:05.21,-489.26,-75.20,-679.69,17.20,-28.08,-33.40,65.40,-38.25,-49.35,17.29,03/22/2020,00:00:04.200,0,0,0,0,0,0,0,9999,10.169,
01/01/2000,00:00:05.31,378.42,248.05,-1764.65,-85.59,-1.38,0.32,64.80,-41.10,-45.90,17.10,03/22/2020,00:00:04.300,0,0,0,0,0,0,0,9999,10.163,
01/01/2000,00:00:05.41,-274.41,124.02,-1074.22,-23.32,29.66,4.26,64.95,-40.05,-46.50,17.25,03/22/2020,00:00:04.400,0,0,0,0,0,0,0,9999,10.156,
01/01/2000,00:00:05.51,-495.12,79.10,-566.89,-19.89,8.44,-29.20,65.40,-37.95,-47.10,17.01,03/22/2020,00:00:04.500,0,0,0,0,0,0,0,9999,10.150,
01/01/2000,00:00:05.61,-367.68,-17.58,-1058.59,-13.93,-9.10,-20.80,64.35,-36.75,-51.45,17.49,03/22/2020,00:00:04.600,0,0,0,0,0,0,0,9999,10.145,
01/01/2000,00:00:05.71,-258.79,-88.38,-792.48,-4.26,2.89,-18.22,60.15,-37.35,-50.55,17.29,03/22/2020,00:00:04.700,0,0,0,0,0,0,0,9999,10.140,
01/01/2000,00:00:05.81,-330.57,101.56,-907.71,11.41,-19.89,-24.76,62.70,-38.40,-54.0,17.29,03/22/2020,00:00:04.800,0,0,0,0,0,0,0,9999,10.135,
01/01/2000,00:00:05.91,-1088.87,-729.98,327.15,-23.98,-82.38,-20.76,65.40,-42.0,-48.60,17.63,03/22/2020,00:00:04.900,0,0,0,0,0,0,0,9999,10.131,
01/01/2000,00:00:06.01,-515.14,-128.42,-622.56,10.59,63.72,-20.14,62.25,-46.20,-42.75,17.44,03/22/2020,00:00:05.100,0,0,0,0,0,0,0,9999,9.786,
01/01/2000,00:00:06.21,-406.25,69.82,-433.59,35.66,-9.08,-64.70,64.65,-46.35,-48.30,17.34,03/22/2020,00:00:05.200,0,0,0,0,0,0,0,9999,9.851,
01/01/2000,00:00:06.31,-424.80,39.06,-889.16,-31.27,-16.06,20.53,63.60,-48.30,-48.30,17.44,03/22/2020,00:00:05.300,0,0,0,0,0,0,0,9999,9.855,
01/01/2000,00:00:06.41,-245.61,-169.43,-594.73,51.59,-17.60,87.63,62.10,-42.0,-52.80,17.49,03/22/2020,00:00:05.400,0,0,0,0,0,0,0,9999,9.859,
01/01/2000,00:00:06.50,-416.99,-138.18,-1063.48,12.10,-2.44,-8.42,59.85,-45.15,-50.25,17.68,03/22/2020,00:00:05.500,0,0,0,0,0,0,0,9999,9.863,
01/01/2000,00:00:06.60,-432.62,-137.70,-1097.17,-11.12,20.03,12.92,56.25,-46.65,-49.80,17.53,03/22/2020,00:00:05.600,0,0,0,0,0,0,0,9999,9.867,
01/01/2000,00:00:06.70,-238.28,-30.76,-1068.85,-32.33,42.40,41.50,57.45,-43.50,-51.45,17.68,03/22/2020,00:00:05.700,0,0,0,0,0,0,0,9999,9.870,
01/01/2000,00:00:06.80,-131.84,83.01,-870.61,-16.10,13.38,15.04,60.60,-39.60,-57.60,17.82,03/22/2020,00:00:05.800,0,0,0,0,0,0,0,9999,9.873,
01/01/2000,00:00:06.90,-177.25,53.71,-853.52,15.78,-3.29,-11.37,56.40,-39.30,-54.60,17.68,03/22/2020,00:00:05.900,0,0,0,0,0,0,0,9999,9.877,
01/01/2000,00:00:07.00,-28.81,104.49,-1049.80,10.37,11.19,-47.81,58.05,-39.60,-55.80,17.53,03/22/2020,00:00:06.000,0,0,0,0,0,0,0,9999,9.880,
01/01/2000,00:00:07.10,-938.48,-1095.70,-1324.71,-27.44,-14.40,-43.11,55.65,-43.05,-55.65,17.68,03/22/2020,00:00:06.100,0,0,0,0,0,0,0,9999,9.882,
01/01/2000,00:00:07.20,-458.98,397.46,-1113.77,-6.34,-26.10,-12.26,54.75,-46.95,-50.85,17.63,03/22/2020,00:00:06.200,0,0,0,0,0,0,0,9999,9.885,
01/01/2000,00:00:07.30,-619.14,-97.17,-555.66,-84.50,-104.82,-26.42,53.70,-45.15,-53.70,17.68,03/22/2020,00:00:06.300,0,0,0,0,0,0,0,9999,9.888,
01/01/2000,00:00:07.40,-504.88,-32.71,-708.98,-70.70,6.82,-70.78,58.80,-40.35,-56.25,17.68,03/22/2020,00:00:06.400,0,0,0,0,0,0,0,9999,9.890,
01/01/2000,00:00:07.50,-347.66,207.03,-816.89,-103.72,-45.92,-36.84,55.80,-39.15,-57.90,17.53,03/22/2020,00:00:06.500,0,0,0,0,0,0,0,9999,9.892,
01/01/2000,00:00:07.60,-60.06,656.74,-955.57,-49.33,2.75,-39.63,51.60,-36.60,-57.60,17.44,03/22/2020,00:00:06.600,0,0,0,0,0,0,0,9999,9.895,
01/01/2000,00:00:07.70,-340.33,454.59,-817.87,-33.82,-3.81,41.66,52.95,-32.10,-60.75,17.82,03/22/2020,00:00:06.700,0,0,0,0,0,0,0,9999,9.897,
01/01/2000,00:00:07.80,-37.11,360.35,-958.98,-29.74,55.34,-95.46,49.35,-34.05,-61.20,17.87,03/22/2020,00:00:06.800,0,0,0,0,0,0,0,9999,9.899,
01/01/2000,00:00:07.90,-210.45,104.00,-899.90,-46.31,38.96,1.11,45.15,-34.80,-61.50,17.82,03/22/2020,00:00:06.900,0,0,0,0,0,0,0,9999,9.901,
01/01/2000,00:00:08.00,-157.71,6.35,-1316.89,-8.32,-66.49,78.66,46.35,-27.45,-64.80,17.97,03/22/2020,00:00:07.000,0,0,0,0,0,0,0,9999,9.865,
01/01/2000,00:00:08.10,202.64,500.49,-1098.63,103.40,13.30,16.79,49.95,-27.15,-62.40,18.01,03/22/2020,00:00:07.100,0,0,0,0,0,0,0,9999,9.905,
01/01/2000,00:00:08.20,-1.46,361.33,-957.03,117.03,50.25,48.23,48.45,-38.55,-63.15,17.82,03/22/2020,00:00:07.200,0,0,0,0,0,0,0,9999,9.907,
01/01/2000,00:00:08.30,-178.22,184.57,-1041.99,35.48,-48.55,91.56,42.30,-45.45,-59.10,17.63,03/22/2020,00:00:07.300,0,0,0,0,0,0,0,9999,9.908,
01/01/2000,00:00:08.40,-402.83,-127.44,-864.26,57.44,-7.95,69.49,46.05,-46.05,-57.15,18.01,03/22/2020,00:00:07.400,0,0,0,0,0,0,0,9999,9.910,
01/01/2000,00:00:08.50,-503.91,-15.14,-953.61,-23.44,2.56,73.04,49.35,-46.65,-57.30,18.16,03/22/2020,00:00:07.500,0,0,0,0,0,0,0,9999,9.912,
01/01/2000,00:00:08.60,-172.85,183.59,-998.54,-33.08,-23.96,26.67,54.30,-40.80,-57.75,17.87,03/22/2020,00:00:07.600,0,0,0,0,0,0,0,9999,9.913,
01/01/2000,00:00:08.70,-395.51,-11.23,-1104.98,-46.76,24.31,64.50,56.55,-39.90,-55.80,17.97,03/22/2020,00:00:07.700,0,0,0,0,0,0,0,9999,9.915,
01/01/2000,00:00:08.80,65.92,180.18,-863.28,-59.82,59.33,131.31,56.70,-28.95,-59.55,18.06,03/22/2020,00:00:07.800,0,0,0,0,0,0,0,9999,9.916,
01/01/2000,00:00:08.90,452.64,450.68,-690.43,13.64,42.89,12.11,52.80,-21.60,-61.65,18.06,03/22/2020,00:00:07.900,0,0,0,0,0,0,0,9999,9.917,
01/01/2000,00:00:09.00,76.66,225.59,-805.66,107.26,-48.78,-127.82,52.50,-30.15,-57.45,18.06,03/22/2020,00:00:08.000,0,0,0,0,0,0,0,9999,9.887,
01/01/2000,00:00:09.11,-183.11,66.41,-854.00,37.83,35.11,-48.21,56.70,-37.95,-57.75,18.16,03/22/2020,00:00:08.100,0,0,0,0,0,0,0,9999,9.920,
01/01/2000,00:00:09.21,-417.97,49.80,-1259.77,-19.82,-92.21,-20.69,56.25,-42.45,-56.85,17.87,03/22/2020,00:00:08.200,0,0,0,0,0,0,0,9999,9.921,
01/01/2000,00:00:09.31,-543.46,44.43,-1063.48,-46.57,-20.14,-13.98,59.25,-39.30,-55.65,18.21,03/22/2020,00:00:08.300,0,0,0,0,0,0,0,9999,9.922,
01/01/2000,00:00:09.40,-143.55,-57.13,-1229.98,-12.90,-76.83,-37.53,57.60,-42.45,-54.0,18.16,03/22/2020,00:00:08.400,0,0,0,0,0,0,0,9999,9.924,
01/01/2000,00:00:09.50,-400.88,40.04,-722.17,-15.30,-74.60,-23.89,64.65,-40.80,-50.40,17.77,03/22/2020,00:00:08.500,0,0,0,0,0,0,0,9999,9.925,
01/01/2000,00:00:09.60,-452.64,-44.43,-841.31,-8.18,-45.76,-10.16,62.55,-42.75,-45.45,18.21,03/22/2020,00:00:08.600,0,0,0,0,0,0,0,9999,9.926,
01/01/2000,00:00:09.70,-538.57,-16.60,-621.09,18.86,5.44,-2.93,64.95,-43.50,-42.60,18.16,03/22/2020,00:00:08.700,0,0,0,0,0,0,0,9999,9.927,
01/01/2000,00:00:09.80,-598.14,23.93,-777.34,24.50,4.97,1.47,66.75,-44.85,-47.55,18.21,03/22/2020,00:00:08.800,0,0,0,0,0,0,0,9999,9.928,
01/01/2000,00:00:09.90,-586.43,-18.07,-739.26,10.64,-7.81,1.63,67.20,-43.05,-47.10,18.21,03/22/2020,00:00:08.900,0,0,0,0,0,0,0,9999,9.929,
01/01/2000,00:00:10.00,-589.84,-28.32,-790.04,7.96,9.50,-0.73,66.75,-43.50,-45.45,17.82,03/22/2020,00:00:09.000,0,0,0,0,0,0,0,9999,9.930,
01/01/2000,00:00:10.10,-548.34,-3.42,-839.84,0.21,33.86,5.92,64.35,-45.30,-44.70,17.97,03/22/2020,00:00:09.100,0,0,0,0,0,0,0,9999,9.931,
01/01/2000,00:00:10.20,-462.40,-48.83,-685.06,10.12,30.50,1.92,63.0,-46.95,-43.05,18.21,03/22/2020,00:00:09.200,0,0,0,0,0,0,0,9999,9.932,
01/01/2000,00:00:10.30,26.37,-184.08,-719.24,23.88,97.37,117.06,61.35,-45.30,-48.90,18.30,03/22/2020,00:00:09.300,0,0,0,0,0,0,0,9999,9.933,
01/01/2000,00:00:10.40,-582.52,47.36,-1161.62,34.89,167.65,73.02,60.30,-37.95,-56.40,18.21,03/22/2020,00:00:09.400,0,0,0,0,0,0,0,9999,9.934,
01/01/2000,00:00:10.50,-161.13,300.78,-1215.33,-21.83,-17.73,74.27,52.65,-34.80,-57.90,18.21,03/22/2020,00:00:09.500,0,0,0,0,0,0,0,9999,9.935,
01/01/2000,00:00:10.60,186.52,409.18,-844.24,-81.24,158.02,114.89,48.45,-28.20,-63.75,18.21,03/22/2020,00:00:09.600,0,0,0,0,0,0,0,9999,9.935,
01/01/2000,00:00:10.70,146.00,58.59,-967.29,16.21,28.64,73.92,42.60,-22.50,-66.15,18.35,03/22/2020,00:00:09.700,0,0,0,0,0,0,0,9999,9.936,
01/01/2000,00:00:10.80,595.21,-234.38,-727.54,30.79,49.98,98.45,36.30,-23.10,-62.70,18.49,03/22/2020,00:00:09.800,0,0,0,0,0,0,0,9999,9.937,
01/01/2000,00:00:10.90,101.07,61.52,-958.01,12.54,13.55,93.56,35.55,-23.10,-64.80,18.16,03/22/2020,00:00:09.900,0,0,0,0,0,0,0,9999,9.938,
01/01/2000,00:00:11.00,448.24,-114.75,-1112.79,-16.82,-29.35,39.94,38.40,-23.85,-67.05,18.30,03/22/2020,00:00:10.000,0,0,0,0,0,0,0,9999,9.914,
01/01/2000,00:00:11.10,302.73,-46.88,-972.17,-17.92,-30.76,36.29,38.85,-19.05,-66.0,18.16,03/22/2020,00:00:10.100,0,0,0,0,0,0,0,9999,9.939,
01/01/2000,00:00:11.20,222.66,-65.43,-942.87,-10.88,-18.61,24.95,41.40,-19.05,-63.75,18.35,03/22/2020,00:00:10.200,0,0,0,0,0,0,0,9999,9.940,
01/01/2000,00:00:11.30,216.31,-59.08,-870.12,-22.62,22.99,41.92,43.50,-15.60,-65.25,18.21,03/22/2020,00:00:10.300,0,0,0,0,0,0,0,9999,9.941,
01/01/2000,00:00:11.40,291.02,104.49,-1027.34,-22.44,-4.64,22.65,40.50,-15.90,-62.25,18.35,03/22/2020,00:00:10.400,0,0,0,0,0,0,0,9999,9.942,
01/01/2000,00:00:11.50,406.74,105.96,-883.30,2.94,-17.43,-14.95,40.80,-15.45,-63.30,18.54,03/22/2020,00:00:10.500,0,0,0,0,0,0,0,9999,9.942,
01/01/2000,00:00:11.60,358.89,49.32,-842.77,37.05,24.54,-53.93,42.0,-15.30,-62.40,18.35,03/22/2020,00:00:10.600,0,0,0,0,0,0,0,9999,9.943,
01/01/2000,00:00:11.70,291.02,-155.76,-1086.43,26.93,-10.30,-57.0,42.90,-18.45,-64.65,18.40,03/22/2020,00:00:10.700,0,0,0,0,0,0,0,9999,9.932,
01/01/2000,00:00:11.80,130.86,-132.32,-955.57,19.08,6.92,-19.31,41.55,-19.20,-65.10,18.54,03/22/2020,00:00:10.800,0,0,0,0,0,0,0,9999,9.944,
01/01/2000,00:00:11.90,47.36,-124.51,-874.51,-27.73,-18.02,10.89,41.55,-22.20,-62.85,18.16,03/22/2020,00:00:10.900,0,0,0,0,0,0,0,9999,9.945,
01/01/2000,00:00:12.00,129.39,-135.74,-1112.79,8.66,14.89,47.56,40.95,-21.15,-64.20,18.40,03/22/2020,00:00:11.000,0,0,0,0,0,0,0,9999,9.924,
01/01/2000,00:00:12.11,236.82,-114.26,-1064.45,9.66,11.67,17.09,40.80,-21.0,-65.70,18.54,03/22/2020,00:00:11.100,0,0,0,0,0,0,0,9999,9.946,
01/01/2000,00:00:12.20,231.93,-212.40,-1032.23,18.39,-17.68,19.56,41.10,-19.50,-65.70,18.54,03/22/2020,00:00:11.200,0,0,0,0,0,0,0,9999,9.947,
01/01/2000,00:00:12.30,140.14,-52.25,-834.96,-1.84,26.69,71.07,38.10,-20.10,-62.70,18.49,03/22/2020,00:00:11.300,0,0,0,0,0,0,0,9999,9.947,
01/01/2000,00:00:12.40,414.55,-227.54,-928.22,-13.97,37.02,72.01,37.05,-19.35,-66.30,18.35,03/22/2020,00:00:11.400,0,0,0,0,0,0,0,9999,9.948,
01/01/2000,00:00:12.50,458.98,-179.69,-943.85,-5.99,9.94,19.66,34.50,-17.55,-66.30,18.40,03/22/2020,00:00:11.500,0,0,0,0,0,0,0,9999,9.948,
01/01/2000,00:00:12.60,325.68,-118.65,-951.66,6.17,5.50,25.38,31.35,-19.35,-64.20,18.40,03/22/2020,00:00:11.600,0,0,0,0,0,0,0,9999,9.949,
01/01/2000,00:00:12.70,385.25,-186.04,-890.14,-1.89,-4.60,1.91,30.75,-19.20,-62.25,18.49,03/22/2020,00:00:11.700,0,0,0,0,0,0,0,9999,9.949,
01/01/2000,00:00:12.80,314.45,-175.78,-905.76,1.07,-3.24,-14.10,33.75,-17.55,-66.30,18.54,03/22/2020,00:00:11.800,0,0,0,0,0,0,0,9999,9.950,
01/01/2000,00:00:12.90,293.46,-154.79,-945.80,19.38,5.11,1.12,33.75,-17.85,-67.05,18.68,03/22/2020,00:00:11.900,0,0,0,0,0,0,0,9999,9.950,
01/01/2000,00:00:13.00,398.93,-206.54,-927.25,4.01,-8.12,-23.63,31.95,-20.55,-63.75,18.30,03/22/2020,00:00:12.000,0,0,0,0,0,0,0,9999,9.951,
01/01/2000,00:00:13.10,351.56,-206.05,-929.20,15.59,-2.36,-25.47,33.45,-20.10,-67.05,18.54,03/22/2020,00:00:12.100,0,0,0,0,0,0,0,9999,9.951,
01/01/2000,00:00:13.20,291.50,-203.61,-857.91,-7.79,-4.29,-31.11,32.55,-22.20,-63.30,18.54,03/22/2020,00:00:12.200,0,0,0,0,0,0,0,9999,9.952,
01/01/2000,00:00:13.30,208.50,-125.0,-992.68,-12.28,-2.22,-16.54,36.0,-21.15,-64.80,18.49,03/22/2020,00:00:12.300,0,0,0,0,0,0,0,9999,9.952,
01/01/2000,00:00:13.40,237.79,-159.18,-878.91,18.63,70.89,52.81,31.35,-21.15,-64.80,18.83,03/22/2020,00:00:12.400,0,0,0,0,0,0,0,9999,9.953,
01/01/2000,00:00:13.50,363.77,-298.34,-690.43,24.82,125.90,113.36,24.30,-22.50,-66.15,18.54,03/22/2020,00:00:12.500,0,0,0,0,0,0,0,9999,9.953,
01/01/2000,00:00:13.60,585.45,-454.10,-729.98,5.98,-20.56,73.37,15.0,-28.05,-64.05,18.68,03/22/2020,00:00:12.600,0,0,0,0,0,0,0,9999,9.953,
01/01/2000,00:00:13.70,623.54,-538.57,-738.77,-0.74,2.10,47.64,15.30,-30.30,-61.80,18.83,03/22/2020,00:00:12.700,0,0,0,0,0,0,0,9999,9.954,
01/01/2000,00:00:13.80,524.41,-541.99,-639.16,-10.40,-10.79,13.63,16.05,-29.85,-62.25,18.54,03/22/2020,00:00:12.800,0,0,0,0,0,0,0,9999,9.936,
01/01/2000,00:00:13.91,515.63,-528.32,-762.70,-4.05,11.85,17.40,19.05,-28.65,-65.55,18.88,03/22/2020,00:00:12.900,0,0,0,0,0,0,0,9999,9.955,
01/01/2000,00:00:14.01,433.59,-508.30,-887.70,0.42,11.88,-4.69,17.10,-28.05,-64.65,18.68,03/22/2020,00:00:13.000,0,0,0,0,0,0,0,9999,9.955,
01/01/2000,00:00:14.10,426.27,-496.09,-804.20,29.21,6.27,-10.11,14.70,-31.05,-61.50,18.54,03/22/2020,00:00:13.100,0,0,0,0,0,0,0,9999,9.956,
01/01/2000,00:00:14.20,519.53,-503.42,-646.48,8.18,16.86,-9.70,18.60,-28.80,-65.10,18.88,03/22/2020,00:00:13.200,0,0,0,0,0,0,0,9999,9.956,
01/01/2000,00:00:14.30,496.09,-474.61,-594.24,-16.98,-10.21,7.60,17.25,-26.70,-65.55,18.83,03/22/2020,00:00:13.300,0,0,0,0,0,0,0,9999,9.956,
01/01/2000,00:00:14.40,462.89,-474.61,-731.45,-44.17,-7.63,15.05,15.75,-28.50,-62.55,18.68,03/22/2020,00:00:13.400,0,0,0,0,0,0,0,9999,9.957,
01/01/2000,00:00:14.50,354.00,-454.10,-942.38,-12.45,4.43,-4.44,15.0,-29.55,-61.80,19.02,03/22/2020,00:00:13.500,0,0,0,0,0,0,0,9999,9.957,
01/01/2000,00:00:14.60,409.18,-456.54,-784.67,26.74,2.44,-20.38,19.05,-26.40,-64.50,18.49,03/22/2020,00:00:13.600,0,0,0,0,0,0,0,9999,9.957,
01/01/2000,00:00:14.70,497.07,-477.54,-568.36,8.01,-2.14,-14.05,18.60,-27.30,-64.65,18.68,03/22/2020,00:00:13.700,0,0,0,0,0,0,0,9999,9.949,
01/01/2000,00:00:14.80,401.86,-450.68,-153.81,-8.87,-86.68,-14.59,21.30,-24.90,-64.50,18.83,03/22/2020,00:00:13.800,0,0,0,0,0,0,0,9999,9.958,
01/01/2000,00:00:14.90,716.80,-830.08,-1058.11,131.98,-25.73,4.47,25.20,-32.40,-66.0,18.73,03/22/2020,00:00:13.900,0,0,0,0,0,0,0,9999,9.959,
01/01/2000,00:00:15.00,269.04,-620.61,-1417.97,-15.16,-39.67,-103.07,24.45,-41.25,-62.10,18.83,03/22/2020,00:00:14.100,0,0,0,0,0,0,0,9999,9.869,
01/01/2000,00:00:15.20,230.47,-252.44,-979.98,-69.44,-165.90,-19.40,39.15,-30.45,-67.05,18.83,03/22/2020,00:00:14.200,0,0,0,0,0,0,0,9999,9.863,
01/01/2000,00:00:15.30,176.27,-310.55,-1092.77,-108.92,-149.29,0.22,51.0,-23.10,-62.70,19.02,03/22/2020,00:00:14.300,0,0,0,0,0,0,0,9999,9.880,
01/01/2000,00:00:15.40,-269.53,-72.75,-981.93,-141.83,-59.73,59.11,59.70,-12.30,-55.95,19.07,03/22/2020,00:00:14.400,0,0,0,0,0,0,0,9999,9.880,
01/01/2000,00:00:15.50,-218.26,15.14,-1060.55,31.15,73.15,-13.13,60.0,-6.45,-54.30,18.92,03/22/2020,00:00:14.500,0,0,0,0,0,0,0,9999,9.881,
01/01/2000,00:00:15.60,-201.17,239.75,-831.05,-49.92,-20.31,31.67,57.15,-7.20,-53.85,18.92,03/22/2020,00:00:14.600,0,0,0,0,0,0,0,9999,9.882,
01/01/2000,00:00:15.70,-178.71,195.31,-1031.25,24.36,27.16,-30.54,56.55,-3.60,-53.70,18.73,03/22/2020,00:00:14.700,0,0,0,0,0,0,0,9999,9.883,
01/01/2000,00:00:15.80,-84.47,161.13,-783.69,13.40,17.36,15.84,53.40,-5.10,-57.90,18.92,03/22/2020,00:00:14.800,0,0,0,0,0,0,0,9999,9.884,
01/01/2000,00:00:15.90,-30.27,33.69,-968.26,28.21,27.27,3.40,54.0,-8.85,-60.45,19.07,03/22/2020,00:00:14.900,0,0,0,0,0,0,0,9999,9.885,
01/01/2000,00:00:16.00,-198.24,106.45,-1068.36,65.08,-20.60,-62.94,53.25,-13.80,-57.45,18.68,03/22/2020,00:00:15.000,0,0,0,0,0,0,0,9999,9.886,
01/01/2000,00:00:16.10,-218.26,-74.22,-812.50,47.35,74.58,25.49,54.90,-16.05,-60.60,19.12,03/22/2020,00:00:15.100,0,0,0,0,0,0,0,9999,9.887,
01/01/2000,00:00:16.20,153.32,-216.31,-1132.32,69.69,37.18,28.21,46.50,-21.45,-61.20,19.02,03/22/2020,00:00:15.200,0,0,0,0,0,0,0,9999,9.888,
01/01/2000,00:00:16.30,136.72,-273.93,-826.66,-8.88,-17.19,-4.60,45.60,-23.85,-62.10,18.83,03/22/2020,00:00:15.300,0,0,0,0,0,0,0,9999,9.888,
01/01/2000,00:00:16.40,125.49,-270.02,-1122.56,-20.19,-18.17,-22.98,47.55,-25.80,-61.50,19.26,03/22/2020,00:00:15.400,0,0,0,0,0,0,0,9999,9.889,
01/01/2000,00:00:16.50,-10.74,-156.25,-844.24,-16.98,21.58,-9.56,48.75,-23.25,-63.30,18.92,03/22/2020,00:00:15.500,0,0,0,0,0,0,0,9999,9.890,
01/01/2000,00:00:16.60,67.87,-196.78,-1024.90,30.69,-15.80,-19.91,47.85,-24.60,-64.20,18.88,03/22/2020,00:00:15.600,0,0,0,0,0,0,0,9999,9.891,
01/01/2000,00:00:16.70,106.45,-249.51,-829.59,26.36,-15.16,-5.38,47.25,-25.50,-60.45,19.12,03/22/2020,00:00:15.700,0,0,0,0,0,0,0,9999,9.892,
01/01/2000,00:00:16.80,156.25,-270.02,-957.03,10.20,-9.61,-21.55,48.45,-28.20,-61.65,19.26,03/22/2020,00:00:15.800,0,0,0,0,0,0,0,9999,9.892,
01/01/2000,00:00:16.90,92.29,-151.86,-1181.15,-11.90,-3.69,-3.02,50.10,-28.80,-61.20,18.92,03/22/2020,00:00:15.900,0,0,0,0,0,0,0,9999,9.893,
01/01/2000,00:00:17.00,-5.86,-124.02,-1130.37,-82.25,-74.01,-13.89,55.80,-24.75,-60.45,19.07,03/22/2020,00:00:16.000,0,0,0,0,0,0,0,9999,9.880,
01/01/2000,00:00:17.10,165.04,-99.12,-1035.64,-103.51,-49.38,-31.02,58.80,-15.45,-59.40,18.83,03/22/2020,00:00:16.100,0,0,0,0,0,0,0,9999,9.895,
01/01/2000,00:00:17.20,-666.02,455.57,-794.43,-100.20,-56.67,54.85,64.35,-12.0,-52.80,19.02,03/22/2020,00:00:16.200,0,0,0,0,0,0,0,9999,9.895,
01/01/2000,00:00:17.30,-75.68,229.00,-902.83,26.27,65.95,-24.62,62.25,-6.90,-52.65,19.07,03/22/2020,00:00:16.300,0,0,0,0,0,0,0,9999,9.896,
01/01/2000,00:00:17.40,-40.04,173.34,-783.69,0.40,90.32,10.81,57.60,-9.90,-52.35,19.07,03/22/2020,00:00:16.400,0,0,0,0,0,0,0,9999,9.897,
01/01/2000,00:00:17.50,-116.70,460.94,-968.75,-10.97,11.05,24.65,54.75,-8.40,-54.45,19.12,03/22/2020,00:00:16.500,0,0,0,0,0,0,0,9999,9.898,
01/01/2000,00:00:17.60,-144.04,329.59,-1062.99,-67.05,-49.37,52.01,55.80,-6.15,-56.25,19.12,03/22/2020,00:00:16.600,0,0,0,0,0,0,0,9999,9.898,
01/01/2000,00:00:17.70,-82.03,279.79,-926.27,-5.49,57.85,55.93,53.85,1.95,-53.85,19.12,03/22/2020,00:00:16.700,0,0,0,0,0,0,0,9999,9.899,
01/01/2000,00:00:17.80,11.23,347.17,-855.96,-70.66,-6.01,31.44,48.30,2.85,-53.70,19.21,03/22/2020,00:00:16.800,0,0,0,0,0,0,0,9999,9.900,
01/01/2000,00:00:17.90,83.98,432.62,-710.45,-2.99,-42.20,-30.92,50.55,6.15,-51.30,18.92,03/22/2020,00:00:17.000,0,0,0,0,0,0,0,9999,9.828,
01/01/2000,00:00:18.10,-152.34,575.68,-963.87,17.24,-28.60,11.56,54.75,3.30,-51.90,19.26,03/22/2020,00:00:17.100,0,0,0,0,0,0,0,9999,9.836,
01/01/2000,00:00:18.20,-392.09,271.00,-955.57,-20.21,-28.74,6.44,56.10,1.65,-46.80,18.83,03/22/2020,00:00:17.200,0,0,0,0,0,0,0,9999,9.837,
01/01/2000,00:00:18.30,-418.95,332.03,-810.06,23.87,-66.54,-54.62,58.20,2.70,-45.45,19.26,03/22/2020,00:00:17.300,0,0,0,0,0,0,0,9999,9.838,
01/01/2000,00:00:18.40,-518.55,-115.23,-815.43,52.28,73.40,-34.68,64.05,-2.55,-49.50,19.40,03/22/2020,00:00:17.400,0,0,0,0,0,0,0,9999,9.839,
01/01/2000,00:00:18.50,-437.01,-35.64,-921.39,56.81,76.88,63.31,62.25,-2.10,-50.25,18.92,03/22/2020,00:00:17.500,0,0,0,0,0,0,0,9999,9.840,
01/01/2000,00:00:18.60,-184.57,273.93,-885.25,-1.61,49.79,77.37,53.55,-4.20,-53.55,19.26,03/22/2020,00:00:17.600,0,0,0,0,0,0,0,9999,9.841,
01/01/2000,00:00:18.70,-436.52,68.36,-732.42,65.24,-71.61,98.80,48.90,-2.70,-52.20,19.21,03/22/2020,00:00:17.700,0,0,0,0,0,0,0,9999,9.842,
01/01/2000,00:00:18.80,-490.23,-297.85,-528.32,78.47,55.08,206.27,45.45,-2.55,-55.80,19.07,03/22/2020,00:00:17.800,0,0,0,0,0,0,0,9999,9.843,
01/01/2000,00:00:18.90,-347.17,-772.46,-946.29,207.82,25.14,198.48,41.85,-4.80,-64.05,19.26,03/22/2020,00:00:17.900,0,0,0,0,0,0,0,9999,9.844,
01/01/2000,00:00:19.00,-391.60,-700.20,-1498.05,73.16,53.75,205.09,36.15,-17.40,-63.30,19.26,03/22/2020,00:00:18.000,0,0,0,0,0,0,0,9999,9.833,
01/01/2000,00:00:19.10,-174.32,-630.37,-982.91,-13.16,119.63,225.53,33.30,-15.90,-65.40,19.36,03/22/2020,00:00:18.100,0,0,0,0,0,0,0,9999,9.846,
01/01/2000,00:00:19.20,131.84,-722.66,-1328.13,-65.0,52.68,206.01,25.20,-17.55,-66.60,19.07,03/22/2020,00:00:18.200,0,0,0,0,0,0,0,9999,9.847,
01/01/2000,00:00:19.30,-31.25,-762.21,-1203.61,-165.58,-19.08,150.70,22.95,-8.10,-62.55,19.21,03/22/2020,00:00:18.300,0,0,0,0,0,0,0,9999,9.848,
01/01/2000,00:00:19.40,24.90,256.35,-841.80,-91.63,64.39,16.19,20.25,-2.40,-57.15,19.26,03/22/2020,00:00:18.400,0,0,0,0,0,0,0,9999,9.849,
01/01/2000,00:00:19.50,-29.30,579.10,-785.16,-15.26,78.12,17.08,19.65,4.35,-55.80,19.07,03/22/2020,00:00:18.500,0,0,0,0,0,0,0,9999,9.850,
01/01/2000,00:00:19.60,-169.43,502.93,-678.71,-19.43,6.71,14.57,19.05,6.75,-53.55,19.12,03/22/2020,00:00:18.600,0,0,0,0,0,0,0,9999,9.851,
01/01/2000,00:00:19.70,-151.37,424.32,-831.05,36.63,11.95,3.09,17.10,3.60,-51.90,19.40,03/22/2020,00:00:18.700,0,0,0,0,0,0,0,9999,9.852,
01/01/2000,00:00:19.80,-126.46,325.68,-1071.29,0.56,-15.68,-10.37,19.80,3.45,-55.95,19.12,03/22/2020,00:00:18.800,0,0,0,0,0,0,0,9999,9.853,
01/01/2000,00:00:19.90,-145.02,365.23,-1579.10,133.67,127.73,-51.35,21.15,1.80,-54.60,19.07,03/22/2020,00:00:18.900,0,0,0,0,0,0,0,9999,9.853,
01/01/2000,00:00:20.00,-1148.93,415.53,-953.13,-183.19,110.53,53.76,19.35,2.10,-53.40,19.40,03/22/2020,00:00:19.000,0,0,0,0,0,0,0,9999,9.843,
01/01/2000,00:00:20.11,-355.96,405.76,-28.32,76.18,-19.63,179.18,15.90,7.50,-49.65,19.26,03/22/2020,00:00:19.100,0,0,0,0,0,0,0,9999,9.855,
01/01/2000,00:00:20.21,-96.19,174.32,-915.04,208.18,10.13,-3.29,8.10,-4.80,-53.40,19.12,03/22/2020,00:00:19.200,0,0,0,0,0,0,0,9999,9.856,
01/01/2000,00:00:20.31,-90.33,-44.92,-818.85,-62.10,-144.23,7.02,19.35,-6.15,-69.60,19.26,03/22/2020,00:00:19.300,0,0,0,0,0,0,0,9999,9.857,
01/01/2000,00:00:20.41,212.40,202.64,-647.95,46.83,98.11,56.92,37.95,-10.65,-66.15,19.45,03/22/2020,00:00:19.400,0,0,0,0,0,0,0,9999,9.858,
01/01/2000,00:00:20.50,190.92,12.70,-740.72,109.48,6.57,-13.50,30.45,-17.70,-62.85,19.40,03/22/2020,00:00:19.500,0,0,0,0,0,0,0,9999,9.858,
01/01/2000,00:00:20.60,300.78,-11.72,-723.14,-83.60,-128.69,2.90,24.15,-27.90,-63.75,19.07,03/22/2020,00:00:19.600,0,0,0,0,0,0,0,9999,9.859,
01/01/2000,00:00:20.70,-519.04,252.44,-509.77,38.50,-39.34,-38.85,23.25,-24.0,-65.40,19.21,03/22/2020,00:00:19.700,0,0,0,0,0,0,0,9999,9.860,
01/01/2000,00:00:20.80,-205.57,-460.94,-2000.0,28.16,42.27,-9.95,19.80,-25.65,-62.40,19.40,03/22/2020,00:00:19.800,0,0,0,0,0,0,0,9999,9.861,
01/01/2000,00:00:20.90,-210.94,-38.57,-1057.62,-0.93,104.90,22.40,19.05,-23.40,-64.20,19.40,03/22/2020,00:00:19.900,0,0,0,0,0,0,0,9999,9.861,
01/01/2000,00:00:21.00,-237.30,-244.14,-832.03,3.51,3.05,3.34,14.85,-22.35,-63.75,19.40,03/22/2020,00:00:20.000,0,0,0,0,0,0,0,9999,9.862,
01/01/2000,00:00:21.10,-46.88,61.04,-1171.39,4.50,13.65,2.28,12.0,-24.60,-60.60,19.55,03/22/2020,00:00:20.100,0,0,0,0,0,0,0,9999,9.863,
01/01/2000,00:00:21.20,-77.64,-61.52,-994.14,-0.43,-2.32,-0.31,10.50,-24.90,-61.65,19.45,03/22/2020,00:00:20.200,0,0,0,0,0,0,0,9999,9.864,
01/01/2000,00:00:21.30,-78.13,-43.46,-975.59,2.84,-1.28,1.41,13.95,-24.30,-62.85,19.26,03/22/2020,00:00:20.300,0,0,0,0,0,0,0,9999,9.864,
01/01/2000,00:00:21.40,-80.08,-5.86,-985.35,3.12,-2.56,0.80,12.90,-23.25,-63.60,19.36,03/22/2020,00:00:20.400,0,0,0,0,0,0,0,9999,9.865,
01/01/2000,00:00:21.50,-70.80,-37.60,-969.73,-1.74,0.44,-0.82,13.05,-24.60,-62.70,19.40,03/22/2020,00:00:20.500,0,0,0,0,0,0,0,9999,9.866,
01/01/2000,00:00:21.60,-76.17,-18.07,-979.98,3.03,-2.14,3.15,11.70,-27.30,-60.15,19.64,03/22/2020,00:00:20.600,0,0,0,0,0,0,0,9999,9.867,
01/01/2000,00:00:21.70,-79.10,-8.30,-978.03,-2.21,1.47,-2.66,11.55,-25.35,-61.65,19.26,03/22/2020,00:00:20.700,0,0,0,0,0,0,0,9999,9.867,
01/01/2000,00:00:21.80,-68.85,-5.37,-983.89,-2.15,1.75,0.27,12.45,-24.30,-61.80,19.55,03/22/2020,00:00:20.800,0,0,0,0,0,0,0,9999,9.868,
01/01/2000,00:00:21.90,-70.31,-10.25,-970.21,-1.65,1.36,-1.47,11.10,-25.05,-60.75,19.45,03/22/2020,00:00:20.900,0,0,0,0,0,0,0,9999,9.869,
01/01/2000,00:00:22.00,-78.61,-6.84,-983.40,-1.54,1.16,-0.28,12.30,-24.15,-63.75,19.55,03/22/2020,00:00:21.000,0,0,0,0,0,0,0,9999,9.859,
01/01/2000,00:00:22.10,-76.17,-13.67,-991.70,1.62,-2.72,1.27,13.80,-24.90,-61.65,19.64,03/22/2020,00:00:21.100,0,0,0,0,0,0,0,9999,9.870,
01/01/2000,00:00:22.20,-83.01,2.44,-974.12,1.02,-1.66,0.61,12.30,-24.15,-63.15,19.55,03/22/2020,00:00:21.200,0,0,0,0,0,0,0,9999,9.871,
01/01/2000,00:00:22.30,-71.78,-11.23,-982.91,-1.38,1.67,0.26,10.65,-25.50,-60.45,19.45,03/22/2020,00:00:21.300,0,0,0,0,0,0,0,9999,9.871,
01/01/2000,00:00:22.40,-79.10,-9.28,-987.30,2.62,-2.15,-1.34,11.40,-24.75,-60.45,19.45,03/22/2020,00:00:21.400,0,0,0,0,0,0,0,9999,9.872,
01/01/2000,00:00:22.50,-85.45,-10.74,-982.91,-2.02,1.61,-1.56,12.90,-23.70,-62.85,19.64,03/22/2020,00:00:21.500,0,0,0,0,0,0,0,9999,9.873,
01/01/2000,00:00:22.60,-57.13,-12.70,-999.51,-0.18,1.35,-1.66,12.90,-24.0,-63.30,19.64,03/22/2020,00:00:21.600,0,0,0,0,0,0,0,9999,9.873,
01/01/2000,00:00:22.70,-77.15,-3.91,-966.80,0.52,-0.73,-0.42,11.70,-25.80,-60.45,19.64,03/22/2020,00:00:21.700,0,0,0,0,0,0,0,9999,9.874,
01/01/2000,00:00:22.80,-78.13,-27.34,-1004.39,1.83,-0.94,1.82,13.05,-23.10,-63.15,19.74,03/22/2020,00:00:21.900,0,0,0,0,0,0,0,9999,9.821,
01/01/2000,00:00:23.00,-67.87,-18.55,-980.96,-2.02,2.18,-4.09,10.20,-24.90,-59.55,19.36,03/22/2020,00:00:22.000,0,0,0,0,0,0,0,9999,9.826,
01/01/2000,00:00:23.10,-72.75,-0.98,-979.49,0.86,2.05,-1.28,12.15,-25.05,-61.20,19.74,03/22/2020,00:00:22.100,0,0,0,0,0,0,0,9999,9.827,
01/01/2000,00:00:23.20,-68.36,-13.67,-969.73,-1.80,2.10,-4.78,13.50,-23.25,-63.60,19.93,03/22/2020,00:00:22.200,0,0,0,0,0,0,0,9999,9.828,
01/01/2000,00:00:23.30,-62.99,-21.97,-978.52,-0.18,1.58,-1.56,12.90,-25.05,-65.40,19.55,03/22/2020,00:00:22.300,0,0,0,0,0,0,0,9999,9.829,
01/01/2000,00:00:23.40,-70.31,-34.67,-982.42,-3.63,0.97,-3.60,12.60,-22.65,-64.20,19.55,03/22/2020,00:00:22.400,0,0,0,0,0,0,0,9999,9.830,
01/01/2000,00:00:23.50,-61.04,-5.37,-978.03,-1.53,2.96,-2.53,12.15,-25.50,-60.75,19.45,03/22/2020,00:00:22.500,0,0,0,0,0,0,0,9999,9.831,
01/01/2000,00:00:23.60,-84.47,-20.02,-1002.44,0.07,0.40,-1.58,12.0,-26.10,-60.30,19.40,03/22/2020,00:00:22.600,0,0,0,0,0,0,0,9999,9.831,
01/01/2000,00:00:23.70,-81.54,-12.70,-979.98,1.34,-0.81,1.08,12.30,-25.35,-60.60,19.64,03/22/2020,00:00:22.700,0,0,0,0,0,0,0,9999,9.832,
01/01/2000,00:00:23.80,-69.34,-21.00,-963.87,-2.53,1.77,-2.85,13.50,-23.70,-63.30,19.74,03/22/2020,00:00:22.800,0,0,0,0,0,0,0,9999,9.833,
01/01/2000,00:00:23.90,-60.55,-1.95,-978.03,-0.58,0.70,-2.27,10.80,-24.60,-61.65,19.88,03/22/2020,00:00:22.900,0,0,0,0,0,0,0,9999,9.834,
01/01/2000,00:00:24.00,-64.94,-24.90,-1005.37,3.94,-1.43,0.54,12.30,-24.60,-61.65,19.64,03/22/2020,00:00:23.000,0,0,0,0,0,0,0,9999,9.825,
01/01/2000,00:00:24.11,-63.48,-4.88,-964.36,-0.83,0.35,-3.31,13.20,-23.70,-64.35,19.60,03/22/2020,00:00:23.100,0,0,0,0,0,0,0,9999,9.831,
01/01/2000,00:00:24.21,-82.03,-17.09,-993.65,-1.36,2.85,-1.37,12.30,-26.10,-60.60,19.55,03/22/2020,00:00:23.200,0,0,0,0,0,0,0,9999,9.831,
01/01/2000,00:00:24.31,-79.10,-7.32,-966.31,-1.88,1.07,0.37,12.90,-24.30,-64.05,19.64,03/22/2020,00:00:23.300,0,0,0,0,0,0,0,9999,9.832,
01/01/2000,00:00:24.41,-71.29,-24.41,-985.35,-0.88,0.31,-0.92,14.40,-24.15,-63.45,19.79,03/22/2020,00:00:23.400,0,0,0,0,0,0,0,9999,9.833,
01/01/2000,00:00:24.51,-67.38,-13.18,-1000.0,-2.98,0.10,-2.44,12.60,-25.35,-63.45,19.79,03/22/2020,00:00:23.500,0,0,0,0,0,0,0,9999,9.834,
01/01/2000,00:00:24.61,-77.15,-9.28,-980.47,-1.43,2.22,-3.41,11.55,-24.60,-60.60,19.79,03/22/2020,00:00:23.600,0,0,0,0,0,0,0,9999,9.835,
01/01/2000,00:00:24.71,-89.84,-10.74,-968.26,-2.24,0.78,-2.69,12.30,-25.35,-60.90,19.60,03/22/2020,00:00:23.700,0,0,0,0,0,0,0,9999,9.835,
01/01/2000,00:00:24.81,-50.78,-21.00,-991.70,0.21,-1.41,1.78,12.0,-25.65,-60.60,19.64,03/22/2020,00:00:23.800,0,0,0,0,0,0,0,9999,9.836,
01/01/2000,00:00:24.91,-78.13,-19.04,-961.43,-2.66,3.34,-1.03,12.15,-25.05,-64.05,19.64,03/22/2020,00:00:23.900,0,0,0,0,0,0,0,9999,9.841,
01/01/2000,00:00:25.01,-84.96,-8.30,-1018.55,2.0,-2.25,4.34,12.0,-26.10,-60.30,19.45,03/22/2020,00:00:24.000,0,0,0,0,0,0,0,9999,9.842,
01/01/2000,00:00:25.11,-83.98,-2.93,-980.96,1.46,-2.80,-0.08,13.95,-23.70,-62.85,19.74,03/22/2020,00:00:24.100,0,0,0,0,0,0,0,9999,9.843,
01/01/2000,00:00:25.21,-68.36,-10.25,-985.84,1.47,-2.87,2.50,13.35,-23.85,-63.45,19.45,03/22/2020,00:00:24.200,0,0,0,0,0,0,0,9999,9.843,
01/01/2000,00:00:25.31,-74.71,-12.21,-989.26,3.31,-1.09,2.05,12.30,-23.85,-60.90,19.88,03/22/2020,00:00:24.300,0,0,0,0,0,0,0,9999,9.844,
01/01/2000,00:00:25.41,-36.62,-11.23,-937.99,2.11,-1.61,2.17,12.0,-24.60,-60.90,19.64,03/22/2020,00:00:24.400,0,0,0,0,0,0,0,9999,9.845,
01/01/2000,00:00:25.51,-68.85,-6.84,-978.52,-1.17,1.24,-2.04,13.95,-24.30,-63.30,19.55,03/22/2020,00:00:24.500,0,0,0,0,0,0,0,9999,9.845,
01/01/2000,00:00:25.61,-77.64,-13.67,-983.89,1.77,1.05,2.51,13.05,-23.85,-63.45,19.64,03/22/2020,00:00:24.600,0,0,0,0,0,0,0,9999,9.846,
01/01/2000,00:00:25.71,-84.96,-17.09,-974.12,-0.88,2.16,-0.50,13.05,-26.10,-61.35,19.55,03/22/2020,00:00:24.700,0,0,0,0,0,0,0,9999,9.847,
01/01/2000,00:00:25.81,-87.89,-11.23,-980.47,-0.89,1.53,-0.35,12.0,-23.85,-63.45,19.64,03/22/2020,00:00:24.800,0,0,0,0,0,0,0,9999,9.847,
01/01/2000,00:00:25.90,-86.91,-13.67,-983.40,1.99,-1.98,1.86,10.80,-25.65,-59.85,19.45,03/22/2020,00:00:24.900,0,0,0,0,0,0,0,9999,9.848,
01/01/2000,00:00:26.00,-75.68,-15.14,-979.00,2.98,-1.45,1.73,10.65,-24.0,-60.75,19.60,03/22/2020,00:00:25.000,0,0,0,0,0,0,0,9999,9.849,
01/01/2000,00:00:26.10,-75.68,-14.16,-1005.37,-2.21,1.39,-1.35,12.60,-25.35,-60.90,19.74,03/22/2020,00:00:25.100,0,0,0,0,0,0,0,9999,9.849,
01/01/2000,00:00:26.20,-79.59,-8.30,-929.20,0.82,-0.89,1.95,12.90,-24.30,-62.55,19.64,03/22/2020,00:00:25.200,0,0,0,0,0,0,0,9999,9.850,
01/01/2000,00:00:26.30,-70.80,-20.02,-1004.88,0.06,0.88,-1.13,12.0,-23.85,-63.45,19.79,03/22/2020,00:00:25.300,0,0,0,0,0,0,0,9999,9.851,
01/01/2000,00:00:26.40,-67.87,-5.37,-981.93,-1.95,2.69,-2.35,12.90,-24.30,-63.60,19.79,03/22/2020,00:00:25.400,0,0,0,0,0,0,0,9999,9.851,
01/01/2000,00:00:26.50,-79.10,-10.25,-960.94,-3.83,1.50,-0.18,10.50,-24.90,-61.35,19.88,03/22/2020,00:00:25.500,0,0,0,0,0,0,0,9999,9.852,
01/01/2000,00:00:26.60,-81.54,-12.70,-1028.81,-0.79,0.89,-1.11,10.50,-25.35,-61.35,19.60,03/22/2020,00:00:25.600,0,0,0,0,0,0,0,9999,9.853,
01/01/2000,00:00:26.70,-63.96,-3.42,-970.70,-1.90,2.52,-2.02,13.80,-23.10,-62.10,19.64,03/22/2020,00:00:25.700,0,0,0,0,0,0,0,9999,9.853,
01/01/2000,00:00:26.80,-71.29,-8.30,-964.36,3.70,-0.54,1.92,10.35,-27.0,-61.80,19.93,03/22/2020,00:00:25.800,0,0,0,0,0,0,0,9999,9.854,
01/01/2000,00:00:26.90,-78.13,-13.18,-1012.70,1.05,1.36,0.69,13.20,-23.25,-62.25,19.55,03/22/2020,00:00:25.900,0,0,0,0,0,0,0,9999,9.854,
01/01/2000,00:00:27.00,-81.05,-6.84,-970.21,1.20,-1.05,-0.51,12.60,-23.85,-64.80,20.07,03/22/2020,00:00:26.000,0,0,0,0,0,0,0,9999,9.847,
01/01/2000,00:00:27.11,-75.68,-23.44,-1023.44,-1.07,0.87,-1.01,12.30,-23.10,-63.45,19.74,03/22/2020,00:00:26.100,0,0,0,0,0,0,0,9999,9.852,
01/01/2000,00:00:27.21,-59.57,-1.95,-958.98,-1.64,0.92,0.01,11.70,-25.05,-61.50,19.64,03/22/2020,00:00:26.200,0,0,0,0,0,0,0,9999,9.852,
01/01/2000,00:00:27.31,-79.10,-6.35,-982.91,0.15,2.27,-2.21,13.20,-23.25,-63.60,19.60,03/22/2020,00:00:26.300,0,0,0,0,0,0,0,9999,9.853,
01/01/2000,00:00:27.41,-73.73,-24.41,-1013.18,-2.18,1.10,-2.57,12.60,-23.85,-64.20,19.98,03/22/2020,00:00:26.400,0,0,0,0,0,0,0,9999,9.853,
01/01/2000,00:00:27.51,-88.87,-1.95,-977.54,1.98,-0.72,0.47,12.30,-23.85,-63.45,19.74,03/22/2020,00:00:26.500,0,0,0,0,0,0,0,9999,9.854,
01/01/2000,00:00:27.61,-72.75,-11.23,-967.29,-1.31,1.56,-2.98,11.40,-25.05,-61.80,20.07,03/22/2020,00:00:26.600,0,0,0,0,0,0,0,9999,9.859,
01/01/2000,00:00:27.71,-51.76,-15.63,-977.05,1.64,-1.96,2.08,11.25,-25.65,-60.60,19.64,03/22/2020,00:00:26.700,0,0,0,0,0,0,0,9999,9.859,
01/01/2000,00:00:27.81,-73.24,6.84,-971.68,0.24,-1.08,0.37,12.30,-24.60,-61.65,19.88,03/22/2020,00:00:26.800,0,0,0,0,0,0,0,9999,9.860,
01/01/2000,00:00:27.91,-72.75,-4.88,-1002.93,3.30,-2.92,1.21,12.30,-24.60,-63.75,19.88,03/22/2020,00:00:26.900,0,0,0,0,0,0,0,9999,9.860,
01/01/2000,00:00:28.01,-86.43,-10.74,-977.05,-1.24,2.76,-2.87,11.40,-26.25,-60.75,19.88,03/22/2020,00:00:27.000,0,0,0,0,0,0,0,9999,9.861,
01/01/2000,00:00:28.11,-86.91,13.18,-982.91,-3.11,1.61,-3.40,14.40,-23.85,-64.20,19.98,03/22/2020,00:00:27.100,0,0,0,0,0,0,0,9999,9.861,
01/01/2000,00:00:28.21,-74.22,-8.79,-981.45,0.20,2.47,-0.53,13.20,-24.0,-62.85,19.93,03/22/2020,00:00:27.200,0,0,0,0,0,0,0,9999,9.862,
01/01/2000,00:00:28.31,-82.03,-1.95,-984.86,-1.27,1.42,-0.36,12.15,-24.75,-61.20,19.98,03/22/2020,00:00:27.300,0,0,0,0,0,0,0,9999,9.862,
01/01/2000,00:00:28.41,-71.78,-11.72,-970.21,-0.28,1.44,-2.58,10.50,-24.90,-61.65,19.88,03/22/2020,00:00:27.400,0,0,0,0,0,0,0,9999,9.863,
01/01/2000,00:00:28.51,-70.31,-10.25,-984.38,-2.07,1.50,-0.34,13.35,-24.15,-64.50,19.79,03/22/2020,00:00:27.500,0,0,0,0,0,0,0,9999,9.864,
01/01/2000,00:00:28.60,-77.64,-22.95,-982.42,-1.22,0.70,-2.65,12.0,-24.90,-63.45,19.79,03/22/2020,00:00:27.600,0,0,0,0,0,0,0,9999,9.864,
01/01/2000,00:00:28.70,-66.89,-13.18,-981.45,-0.26,0.77,-0.65,12.15,-26.55,-60.75,19.60,03/22/2020,00:00:27.700,0,0,0,0,0,0,0,9999,9.865,
01/01/2000,00:00:28.80,-90.82,-9.77,-997.07,0.10,-1.10,2.51,13.20,-25.05,-62.85,19.93,03/22/2020,00:00:27.800,0,0,0,0,0,0,0,9999,9.865,
01/01/2000,00:00:28.90,-81.54,-6.35,-1000.49,1.43,-2.31,0.70,12.0,-25.35,-60.30,20.07,03/22/2020,00:00:27.900,0,0,0,0,0,0,0,9999,9.866,
01/01/2000,00:00:29.00,-71.29,5.37,-982.42,2.78,-2.20,2.61,11.25,-25.35,-60.30,19.64,03/22/2020,00:00:28.000,0,0,0,0,0,0,0,9999,9.866,
01/01/2000,00:00:29.10,-80.08,-11.72,-988.77,-2.02,0.38,-2.23,11.70,-24.75,-61.80,19.88,03/22/2020,00:00:28.100,0,0,0,0,0,0,0,9999,9.867,
01/01/2000,00:00:29.20,-69.82,-9.77,-982.42,3.60,0.06,3.73,13.20,-22.95,-62.85,20.17,03/22/2020,00:00:28.200,0,0,0,0,0,0,0,9999,9.867,
01/01/2000,00:00:29.30,-79.10,-1.46,-979.98,-2.94,3.15,0.85,13.80,-24.60,-63.45,19.64,03/22/2020,00:00:28.300,0,0,0,0,0,0,0,9999,9.868,
01/01/2000,00:00:29.40,-87.40,-15.63,-984.86,1.24,-1.43,0.89,12.90,-25.05,-61.80,19.93,03/22/2020,00:00:28.400,0,0,0,0,0,0,0,9999,9.868,
01/01/2000,00:00:29.50,-86.91,-11.72,-957.52,1.31,1.47,0.46,10.35,-24.75,-60.75,20.07,03/22/2020,00:00:28.500,0,0,0,0,0,0,0,9999,9.869,
01/01/2000,00:00:29.60,-90.33,-12.21,-981.45,2.27,-1.82,-0.68,11.55,-25.65,-62.10,19.79,03/22/2020,00:00:28.600,0,0,0,0,0,0,0,9999,9.869,
01/01/2000,00:00:29.70,-80.08,-29.79,-979.00,-0.05,2.49,-2.63,14.10,-25.35,-62.40,19.98,03/22/2020,00:00:28.700,0,0,0,0,0,0,0,9999,9.870,
01/01/2000,00:00:29.80,-72.75,-3.42,-983.40,-2.08,1.35,-1.56,12.30,-25.65,-61.35,19.98,03/22/2020,00:00:28.800,0,0,0,0,0,0,0,9999,9.870,
01/01/2000,00:00:29.90,-79.59,-19.04,-984.38,2.26,-2.05,-1.29,13.50,-24.0,-63.30,20.07,03/22/2020,00:00:28.900,0,0,0,0,0,0,0,9999,9.871,
01/01/2000,00:00:30.00,-65.92,-28.81,-963.87,-0.49,3.40,0.61,13.50,-24.30,-63.60,19.79,03/22/2020,00:00:29.000,0,0,0,0,0,0,0,9999,9.864,
01/01/2000,00:00:30.11,-66.89,-10.25,-960.45,3.94,-0.89,-0.63,11.25,-27.15,-60.60,19.79,03/22/2020,00:00:29.100,0,0,0,0,0,0,0,9999,9.868,
01/01/2000,00:00:30.21,-83.50,-8.30,-982.91,1.16,1.40,-0.83,11.70,-25.50,-61.20,19.98,03/22/2020,00:00:29.200,0,0,0,0,0,0,0,9999,9.868,
01/01/2000,00:00:30.31,-80.08,-16.11,-970.21,-2.81,1.14,0.05,14.25,-23.70,-62.55,19.79,03/22/2020,00:00:29.300,0,0,0,0,0,0,0,9999,9.869,
01/01/2000,00:00:30.41,-64.45,-11.23,-952.15,-1.27,1.65,-1.55,12.90,-24.75,-62.85,20.07,03/22/2020,00:00:29.400,0,0,0,0,0,0,0,9999,9.869,
01/01/2000,00:00:30.51,-83.98,-18.07,-982.42,2.78,0.25,-0.90,13.50,-23.70,-62.55,20.17,03/22/2020,00:00:29.500,0,0,0,0,0,0,0,9999,9.870,
01/01/2000,00:00:30.61,-74.71,-14.65,-977.05,1.02,1.87,-0.62,11.55,-24.15,-60.90,20.17,03/22/2020,00:00:29.600,0,0,0,0,0,0,0,9999,9.870,
01/01/2000,00:00:30.71,-74.22,-9.77,-990.23,2.21,-1.88,0.58,9.60,-26.55,-59.10,19.79,03/22/2020,00:00:29.700,0,0,0,0,0,0,0,9999,9.871,
01/01/2000,00:00:30.81,-76.66,-14.65,-990.23,2.75,-1.90,1.92,10.65,-24.0,-61.20,20.07,03/22/2020,00:00:29.800,0,0,0,0,0,0,0,9999,9.875,
01/01/2000,00:00:30.91,-79.10,-10.74,-1008.30,-0.78,1.29,-2.29,11.25,-26.40,-60.30,20.17,03/22/2020,00:00:29.900,0,0,0,0,0,0,0,9999,9.875,
01/01/2000,00:00:31.01,-98.63,-14.16,-1017.58,1.44,-2.40,1.40,12.90,-24.30,-63.60,20.17,03/22/2020,00:00:30.000,0,0,0,0,0,0,0,9999,9.876,
01/01/2000,00:00:31.11,-85.45,15.14,-1007.32,-0.26,1.18,-1.59,13.95,-23.70,-64.05,20.12,03/22/2020,00:00:30.100,0,0,0,0,0,0,0,9999,9.876,
01/01/2000,00:00:31.21,-77.64,-10.74,-969.73,2.72,1.23,1.37,12.45,-25.05,-62.85,20.12,03/22/2020,00:00:30.200,0,0,0,0,0,0,0,9999,9.877,
01/01/2000,00:00:31.31,-62.50,1.95,-974.61,-1.08,1.65,-0.31,10.35,-25.50,-61.20,20.31,03/22/2020,00:00:30.300,0,0,0,0,0,0,0,9999,9.877,
01/01/2000,00:00:31.41,-73.73,-9.77,-988.28,1.99,-1.42,0.62,11.55,-25.35,-60.60,19.79,03/22/2020,00:00:30.400,0,0,0,0,0,0,0,9999,9.877,
01/01/2000,00:00:31.51,-83.98,-7.81,-991.70,0.28,2.18,-1.73,12.90,-24.0,-63.30,20.27,03/22/2020,00:00:30.500,0,0,0,0,0,0,0,9999,9.878,
01/01/2000,00:00:31.61,-78.13,-3.42,-996.58,0.85,-1.62,1.89,12.45,-23.25,-64.05,20.17,03/22/2020,00:00:30.600,0,0,0,0,0,0,0,9999,9.878,
01/01/2000,00:00:31.71,-65.92,-11.72,-958.98,-2.14,0.56,-1.64,9.90,-24.75,-61.50,19.74,03/22/2020,00:00:30.700,0,0,0,0,0,0,0,9999,9.879,
01/01/2000,00:00:31.81,-74.22,-14.16,-1000.98,0.35,3.60,0.17,13.95,-24.0,-64.05,20.07,03/22/2020,00:00:30.800,0,0,0,0,0,0,0,9999,9.879,
01/01/2000,00:00:31.90,-67.38,-8.30,-965.33,-1.29,1.02,-2.02,11.70,-26.25,-60.45,20.27,03/22/2020,00:00:30.900,0,0,0,0,0,0,0,9999,9.880,
01/01/2000,00:00:32.00,-57.62,-13.67,-969.24,-0.94,1.67,-2.08,11.25,-24.90,-60.60,20.12,03/22/2020,00:00:31.000,0,0,0,0,0,0,0,9999,9.880,
01/01/2000,00:00:32.10,-64.94,-18.07,-964.84,-2.50,1.15,-3.58,13.05,-23.85,-63.45,20.12,03/22/2020,00:00:31.100,0,0,0,0,0,0,0,9999,9.880,
01/01/2000,00:00:32.20,-79.59,-11.72,-985.84,-2.56,0.66,-2.07,13.05,-23.10,-63.75,20.12,03/22/2020,00:00:31.200,0,0,0,0,0,0,0,9999,9.881,
01/01/2000,00:00:32.30,-72.27,-6.35,-980.47,1.66,-0.64,3.09,13.95,-24.75,-62.25,20.12,03/22/2020,00:00:31.300,0,0,0,0,0,0,0,9999,9.881,
01/01/2000,00:00:32.40,-80.57,-17.58,-988.28,-1.40,0.90,-0.35,11.25,-25.35,-60.90,19.93,03/22/2020,00:00:31.400,0,0,0,0,0,0,0,9999,9.882,
01/01/2000,00:00:32.50,-63.96,-13.67,-986.33,2.63,-3.07,2.44,11.70,-25.50,-61.50,20.17,03/22/2020,00:00:31.500,0,0,0,0,0,0,0,9999,9.882,
01/01/2000,00:00:32.60,-74.71,3.42,-996.09,-2.13,0.11,-0.37,11.55,-23.85,-60.90,20.12,03/22/2020,00:00:31.600,0,0,0,0,0,0,0,9999,9.882,
01/01/2000,00:00:32.70,-73.24,-2.93,-982.91,1.20,0.47,1.56,13.95,-24.0,-62.85,20.17,03/22/2020,00:00:31.700,0,0,0,0,0,0,0,9999,9.883,
01/01/2000,00:00:32.80,-53.71,-12.70,-964.36,2.38,-2.76,-0.69,10.80,-25.65,-60.90,19.98,03/22/2020,00:00:31.800,0,0,0,0,0,0,0,9999,9.883,
01/01/2000,00:00:32.90,-50.78,-25.39,-978.03,0.11,-0.20,-2.43,12.60,-23.85,-62.70,20.12,03/22/2020,00:00:31.900,0,0,0,0,0,0,0,9999,9.884,
01/01/2000,00:00:33.00,-78.61,-13.67,-977.05,1.85,-0.98,-0.48,13.05,-23.85,-63.15,20.12,03/22/2020,00:00:32.000,0,0,0,0,0,0,0,9999,9.877,
01/01/2000,00:00:33.11,-67.87,-0.98,-986.33,-0.06,0.42,-0.76,9.0,-25.65,-59.55,19.98,03/22/2020,00:00:32.100,0,0,0,0,0,0,0,9999,9.881,
01/01/2000,00:00:33.21,-67.87,-4.88,-962.89,-1.84,2.35,-0.40,14.25,-24.75,-63.30,20.17,03/22/2020,00:00:32.200,0,0,0,0,0,0,0,9999,9.881,
01/01/2000,00:00:33.31,-71.29,-6.35,-980.96,-2.27,2.54,-0.26,13.50,-24.30,-64.05,20.17,03/22/2020,00:00:32.300,0,0,0,0,0,0,0,9999,9.879,
01/01/2000,00:00:33.41,-66.89,-19.53,-979.98,0.17,0.70,-3.38,12.0,-24.90,-62.40,20.17,03/22/2020,00:00:32.400,0,0,0,0,0,0,0,9999,9.882,
01/01/2000,00:00:33.51,-74.71,-13.67,-982.91,0.22,2.55,-0.86,11.40,-24.0,-59.40,20.17,03/22/2020,00:00:32.500,0,0,0,0,0,0,0,9999,9.883,
01/01/2000,00:00:33.61,-72.27,-2.93,-988.28,3.34,-1.97,3.81,12.15,-24.75,-63.60,20.31,03/22/2020,00:00:32.600,0,0,0,0,0,0,0,9999,9.883,
01/01/2000,00:00:33.71,-73.24,9.28,-991.21,0.41,-3.11,-1.76,11.40,-25.50,-61.20,20.27,03/22/2020,00:00:32.700,0,0,0,0,0,0,0,9999,9.883,
01/01/2000,00:00:33.81,-68.85,-14.65,-982.42,-1.60,2.15,-0.93,12.0,-26.40,-61.65,19.88,03/22/2020,00:00:32.800,0,0,0,0,0,0,0,9999,9.884,
01/01/2000,00:00:33.91,-69.82,3.42,-993.16,-0.49,1.76,-0.67,11.10,-25.50,-60.75,20.46,03/22/2020,00:00:32.900,0,0,0,0,0,0,0,9999,9.887,
01/01/2000,00:00:34.01,-70.80,-10.74,-977.05,-0.88,1.69,-1.15,12.60,-25.35,-63.15,20.41,03/22/2020,00:00:33.000,0,0,0,0,0,0,0,9999,9.888,
01/01/2000,00:00:34.11,-82.52,-7.32,-972.66,-0.91,3.37,-2.57,13.50,-24.75,-63.60,20.27,03/22/2020,00:00:33.100,0,0,0,0,0,0,0,9999,9.888,
01/01/2000,00:00:34.21,-84.47,-14.16,-993.16,1.53,-2.15,3.18,13.50,-23.25,-63.30,20.31,03/22/2020,00:00:33.200,0,0,0,0,0,0,0,9999,9.888,
01/01/2000,00:00:34.31,-83.50,-17.58,-977.54,2.56,-1.41,0.65,10.80,-25.65,-59.85,20.17,03/22/2020,00:00:33.300,0,0,0,0,0,0,0,9999,9.889,
01/01/2000,00:00:34.41,-84.47,-13.18,-978.03,1.94,-2.18,3.23,11.10,-24.75,-61.20,20.41,03/22/2020,00:00:33.400,0,0,0,0,0,0,0,9999,9.889,
01/01/2000,00:00:34.51,-70.31,-22.46,-994.14,2.21,-3.55,1.97,13.05,-23.85,-63.15,20.41,03/22/2020,00:00:33.500,0,0,0,0,0,0,0,9999,9.889,
01/01/2000,00:00:34.61,-86.43,-11.23,-989.75,-0.40,2.27,-2.30,10.35,-24.75,-61.50,20.41,03/22/2020,00:00:33.600,0,0,0,0,0,0,0,9999,9.890,
01/01/2000,00:00:34.71,-75.20,-24.41,-984.38,-1.64,3.41,-2.01,13.80,-24.90,-62.40,20.41,03/22/2020,00:00:33.700,0,0,0,0,0,0,0,9999,9.890,
01/01/2000,00:00:34.81,-75.68,-23.93,-984.86,-2.22,1.03,-2.11,13.05,-24.90,-63.45,20.31,03/22/2020,00:00:33.800,0,0,0,0,0,0,0,9999,9.890,
01/01/2000,00:00:34.91,-81.54,-20.02,-974.61,-0.66,0.28,0.28,12.45,-23.25,-62.25,20.31,03/22/2020,00:00:33.900,0,0,0,0,0,0,0,9999,9.891,
01/01/2000,00:00:35.01,-62.50,-25.39,-966.80,4.17,-1.22,0.75,11.25,-25.35,-61.65,20.46,03/22/2020,00:00:34.000,0,0,0,0,0,0,0,9999,9.891,
01/01/2000,00:00:35.10,-70.80,-6.35,-976.56,-1.57,2.34,-2.76,13.05,-23.85,-63.15,19.98,03/22/2020,00:00:34.100,0,0,0,0,0,0,0,9999,9.891,
01/01/2000,00:00:35.20,-92.77,-16.11,-986.82,2.39,-2.76,2.50,13.05,-24.90,-63.45,20.41,03/22/2020,00:00:34.200,0,0,0,0,0,0,0,9999,9.892,
01/01/2000,00:00:35.30,-77.64,-14.16,-994.14,-2.75,4.61,-2.25,14.10,-24.60,-63.15,20.46,03/22/2020,00:00:34.300,0,0,0,0,0,0,0,9999,9.892,
01/01/2000,00:00:35.40,-83.98,-7.32,-987.79,0.56,-0.70,2.40,11.55,-24.15,-61.35,20.46,03/22/2020,00:00:34.400,0,0,0,0,0,0,0,9999,9.892,
01/01/2000,00:00:35.50,-73.24,-8.79,-969.73,-1.24,2.21,-1.45,10.50,-26.10,-60.90,20.46,03/22/2020,00:00:34.500,0,0,0,0,0,0,0,9999,9.893,
01/01/2000,00:00:35.60,-76.66,-12.70,-997.56,3.50,-0.33,4.46,11.55,-26.10,-61.35,20.17,03/22/2020,00:00:34.600,0,0,0,0,0,0,0,9999,9.893,
01/01/2000,00:00:35.70,-72.27,-7.32,-983.89,-3.05,0.23,-0.34,12.60,-23.40,-63.45,20.41,03/22/2020,00:00:34.700,0,0,0,0,0,0,0,9999,9.893,
01/01/2000,00:00:35.80,-69.82,-0.98,-983.89,-2.03,1.29,-1.09,12.15,-26.25,-61.20,20.41,03/22/2020,00:00:34.800,0,0,0,0,0,0,0,9999,9.894,
01/01/2000,00:00:35.90,-80.08,-21.00,-980.96,-1.92,3.44,-1.63,12.15,-24.30,-62.85,20.12,03/22/2020,00:00:34.900,0,0,0,0,0,0,0,9999,9.894,
01/01/2000,00:00:36.00,-69.34,-2.93,-990.23,-1.65,2.22,-1.95,13.95,-24.0,-64.05,20.46,03/22/2020,00:00:35.000,0,0,0,0,0,0,0,9999,9.888,
01/01/2000,00:00:36.11,-63.48,-19.04,-980.96,0.37,-3.05,-1.22,12.60,-23.85,-63.15,20.51,03/22/2020,00:00:35.100,0,0,0,0,0,0,0,9999,9.892,
01/01/2000,00:00:36.21,-68.85,-12.21,-988.28,-1.28,0.05,-0.75,11.25,-24.15,-59.85,20.41,03/22/2020,00:00:35.200,0,0,0,0,0,0,0,9999,9.892,
01/01/2000,00:00:36.31,-73.24,-0.49,-974.61,2.98,-3.25,3.25,13.20,-24.75,-64.65,20.27,03/22/2020,00:00:35.300,0,0,0,0,0,0,0,9999,9.892,
01/01/2000,00:00:36.41,-72.27,-16.60,-984.38,-1.13,1.60,-2.50,13.80,-24.15,-63.15,20.31,03/22/2020,00:00:35.400,0,0,0,0,0,0,0,9999,9.893,
01/01/2000,00:00:36.51,-82.52,-6.84,-1000.0,-1.49,1.68,-2.09,10.50,-24.90,-60.90,20.41,03/22/2020,00:00:35.500,0,0,0,0,0,0,0,9999,9.893,
01/01/2000,00:00:36.61,-69.82,-3.91,-954.10,1.08,-1.91,3.36,14.40,-25.35,-63.75,20.46,03/22/2020,00:00:35.600,0,0,0,0,0,0,0,9999,9.893,
01/01/2000,00:00:36.71,-79.10,-15.63,-984.86,1.12,-2.98,2.09,11.55,-24.90,-61.35,20.31,03/22/2020,00:00:35.700,0,0,0,0,0,0,0,9999,9.894,
01/01/2000,00:00:36.81,-82.03,-21.48,-985.84,-1.01,2.31,-2.89,10.50,-24.90,-61.65,20.46,03/22/2020,00:00:35.800,0,0,0,0,0,0,0,9999,9.894,
01/01/2000,00:00:36.91,-82.03,-8.30,-957.03,-1.58,3.64,-0.70,10.80,-24.90,-60.90,20.17,03/22/2020,00:00:35.900,0,0,0,0,0,0,0,9999,9.894,
01/01/2000,00:00:37.01,-66.41,-14.65,-984.38,-0.41,1.80,-2.58,14.25,-25.50,-63.30,20.46,03/22/2020,00:00:36.000,0,0,0,0,0,0,0,9999,9.895,
01/01/2000,00:00:37.11,-79.10,-18.55,-977.54,-1.98,2.08,0.15,14.25,-24.0,-62.25,20.46,03/22/2020,00:00:36.100,0,0,0,0,0,0,0,9999,9.895,
01/01/2000,00:00:37.21,-79.10,-17.58,-985.84,-0.65,3.68,-0.15,10.80,-26.40,-61.65,20.27,03/22/2020,00:00:36.200,0,0,0,0,0,0,0,9999,9.895,
01/01/2000,00:00:37.31,-71.29,-1.46,-983.89,3.70,-2.46,2.06,12.15,-26.55,-61.20,20.31,03/22/2020,00:00:36.300,0,0,0,0,0,0,0,9999,9.896,
01/01/2000,00:00:37.41,-83.50,-12.70,-974.61,0.0,0.94,-3.79,12.15,-24.0,-61.20,20.41,03/22/2020,00:00:36.400,0,0,0,0,0,0,0,9999,9.896,
01/01/2000,00:00:37.51,-65.43,-2.44,-989.26,2.37,-1.89,0.73,12.15,-24.30,-62.85,20.46,03/22/2020,00:00:36.500,0,0,0,0,0,0,0,9999,9.896,
01/01/2000,00:00:37.61,-77.15,-10.74,-971.68,4.58,-0.38,1.82,11.55,-23.85,-59.55,20.46,03/22/2020,00:00:36.600,0,0,0,0,0,0,0,9999,9.896,
01/01/2000,00:00:37.71,-72.75,-12.21,-984.86,-2.62,1.21,-2.15,13.20,-24.0,-64.05,20.46,03/22/2020,00:00:36.700,0,0,0,0,0,0,0,9999,9.897,
01/01/2000,00:00:37.81,-69.82,-9.28,-980.47,2.91,-0.21,0.08,12.30,-23.40,-64.20,20.46,03/22/2020,00:00:36.800,0,0,0,0,0,0,0,9999,9.900,
01/01/2000,00:00:37.91,-64.94,6.84,-988.28,1.43,-2.34,1.87,9.45,-25.35,-59.55,20.51,03/22/2020,00:00:36.900,0,0,0,0,0,0,0,9999,9.900,
01/01/2000,00:00:38.01,-82.03,-16.11,-982.42,1.25,-0.77,3.50,13.20,-25.05,-61.80,20.41,03/22/2020,00:00:37.000,0,0,0,0,0,0,0,9999,9.900,
01/01/2000,00:00:38.11,-78.61,-13.18,-976.56,3.60,-1.63,1.10,14.70,-23.70,-64.05,20.46,03/22/2020,00:00:37.100,0,0,0,0,0,0,0,9999,9.901,
01/01/2000,00:00:38.21,-71.78,-10.25,-988.28,-1.15,0.76,0.20,14.10,-24.90,-63.45,20.65,03/22/2020,00:00:37.200,0,0,0,0,0,0,0,9999,9.901,
01/01/2000,00:00:38.31,-79.59,-4.88,-998.05,-0.97,2.73,-2.81,13.80,-24.60,-63.45,20.41,03/22/2020,00:00:37.300,0,0,0,0,0,0,0,9999,9.901,
01/01/2000,00:00:38.41,-74.22,-10.74,-1002.93,1.55,2.13,-0.69,12.15,-24.30,-61.80,20.27,03/22/2020,00:00:37.400,0,0,0,0,0,0,0,9999,9.902,
01/01/2000,00:00:38.51,-80.57,-17.58,-995.12,1.18,-2.18,-0.01,10.20,-24.90,-59.85,20.51,03/22/2020,00:00:37.500,0,0,0,0,0,0,0,9999,9.902,
01/01/2000,00:00:38.61,-77.15,-4.39,-1001.95,2.29,-0.67,2.56,10.35,-25.80,-61.20,20.79,03/22/2020,00:00:37.600,0,0,0,0,0,0,0,9999,9.902,
01/01/2000,00:00:38.70,-69.34,2.44,-967.77,-0.69,1.70,-1.59,10.80,-25.35,-61.65,20.46,03/22/2020,00:00:37.700,0,0,0,0,0,0,0,9999,9.902,
01/01/2000,00:00:38.80,-80.08,-2.44,-984.38,-2.51,0.56,-1.38,13.05,-23.85,-63.75,20.60,03/22/2020,00:00:37.800,0,0,0,0,0,0,0,9999,9.903,
01/01/2000,00:00:38.90,-64.45,-14.16,-985.84,-1.71,2.30,-0.68,13.05,-23.40,-63.45,20.79,03/22/2020,00:00:37.900,0,0,0,0,0,0,0,9999,9.903,
01/01/2000,00:00:39.00,-74.22,-14.16,-976.07,1.37,0.19,0.80,12.90,-24.75,-64.35,20.60,03/22/2020,00:00:38.000,0,0,0,0,0,0,0,9999,9.903,
01/01/2000,00:00:39.10,-84.47,0.98,-981.45,2.53,1.11,-0.22,10.65,-24.75,-59.70,20.60,03/22/2020,00:00:38.100,0,0,0,0,0,0,0,9999,9.903,
01/01/2000,00:00:39.20,-71.78,-0.49,-985.84,0.84,-0.60,1.53,12.30,-26.10,-62.10,20.65,03/22/2020,00:00:38.200,0,0,0,0,0,0,0,9999,9.904,
01/01/2000,00:00:39.30,-77.64,-16.60,-968.26,4.27,0.44,2.84,13.35,-24.90,-63.45,20.46,03/22/2020,00:00:38.300,0,0,0,0,0,0,0,9999,9.904,
01/01/2000,00:00:39.40,-69.34,3.42,-970.21,-2.87,1.15,-1.43,12.45,-24.75,-63.60,20.70,03/22/2020,00:00:38.400,0,0,0,0,0,0,0,9999,9.904,
01/01/2000,00:00:39.50,-80.08,-7.32,-981.45,1.45,-2.15,1.18,12.60,-26.40,-60.90,20.41,03/22/2020,00:00:38.500,0,0,0,0,0,0,0,9999,9.905,
01/01/2000,00:00:39.60,-77.64,-7.32,-977.54,2.60,-1.57,2.50,12.45,-24.30,-62.85,20.46,03/22/2020,00:00:38.600,0,0,0,0,0,0,0,9999,9.905,
01/01/2000,00:00:39.70,-80.57,-6.35,-980.96,0.49,-0.82,0.34,11.25,-26.10,-61.35,20.46,03/22/2020,00:00:38.700,0,0,0,0,0,0,0,9999,9.905,
01/01/2000,00:00:39.80,-81.05,-16.60,-969.73,-2.08,-1.15,-2.88,11.10,-25.05,-61.80,20.79,03/22/2020,00:00:38.800,0,0,0,0,0,0,0,9999,9.905,
01/01/2000,00:00:39.90,-73.24,-22.46,-998.05,2.44,-1.65,0.56,13.20,-24.0,-63.60,20.60,03/22/2020,00:00:38.900,0,0,0,0,0,0,0,9999,9.906,
01/01/2000,00:00:40.00,-68.85,-13.18,-939.94,-1.25,1.23,-1.59,12.90,-24.30,-62.55,20.41,03/22/2020,00:00:39.000,0,0,0,0,0,0,0,9999,9.900,
01/01/2000,00:00:40.10,-75.20,-16.60,-985.84,3.31,-2.07,3.34,13.35,-25.35,-63.45,20.65,03/22/2020,00:00:39.100,0,0,0,0,0,0,0,9999,9.906,
01/01/2000,00:00:40.20,-67.38,-7.81,-948.24,2.47,-0.82,1.64,12.15,-25.05,-61.80,20.46,03/22/2020,00:00:39.200,0,0,0,0,0,0,0,9999,9.906,
01/01/2000,00:00:40.30,-60.55,-14.65,-972.17,-1.0,3.21,-2.34,9.90,-26.25,-61.20,20.46,03/22/2020,00:00:39.300,0,0,0,0,0,0,0,9999,9.907,
01/01/2000,00:00:40.40,-67.87,-15.63,-985.35,2.78,-2.39,0.98,11.70,-24.30,-60.75,20.70,03/22/2020,00:00:39.400,0,0,0,0,0,0,0,9999,9.907,
01/01/2000,00:00:40.50,-78.13,-12.21,-973.14,-1.40,3.89,-1.82,14.10,-23.10,-63.45,20.94,03/22/2020,00:00:39.500,0,0,0,0,0,0,0,9999,9.907,
01/01/2000,00:00:40.60,-69.34,1.46,-986.33,-2.15,2.67,1.11,11.40,-26.25,-62.55,20.65,03/22/2020,00:00:39.600,0,0,0,0,0,0,0,9999,9.907,
01/01/2000,00:00:40.70,-84.47,-1.95,-997.56,-2.38,2.45,0.79,12.90,-24.30,-62.85,20.46,03/22/2020,00:00:39.700,0,0,0,0,0,0,0,9999,9.908,
01/01/2000,00:00:40.80,-78.61,0.49,-964.36,-2.28,1.32,-0.33,13.35,-25.35,-63.45,20.41,03/22/2020,00:00:39.800,0,0,0,0,0,0,0,9999,9.908,
01/01/2000,00:00:40.90,-76.66,-13.18,-992.19,-0.30,0.72,-3.13,10.35,-26.55,-59.10,20.51,03/22/2020,00:00:39.900,0,0,0,0,0,0,0,9999,9.908,
01/01/2000,00:00:41.00,-80.57,0.98,-973.14,2.76,-1.31,1.0,11.10,-25.80,-60.45,20.51,03/22/2020,00:00:40.000,0,0,0,0,0,0,0,9999,9.903,
01/01/2000,00:00:41.11,-74.22,-17.09,-974.61,2.76,-2.49,2.42,12.0,-24.60,-62.40,20.94,03/22/2020,00:00:40.100,0,0,0,0,0,0,0,9999,9.908,
01/01/2000,00:00:41.21,-90.82,-18.55,-997.07,2.59,-2.51,3.72,12.90,-24.30,-64.05,20.46,03/22/2020,00:00:40.200,0,0,0,0,0,0,0,9999,9.909,
01/01/2000,00:00:41.31,-65.43,-14.65,-978.52,3.06,-0.06,1.56,12.60,-26.10,-61.35,20.46,03/22/2020,00:00:40.300,0,0,0,0,0,0,0,9999,9.909,
01/01/2000,00:00:41.41,-79.10,0.49,-968.26,2.03,-1.40,2.47,13.50,-23.70,-64.05,20.60,03/22/2020,00:00:40.400,0,0,0,0,0,0,0,9999,9.909,
01/01/2000,00:00:41.50,-82.03,-15.14,-987.30,0.99,-2.04,0.24,10.35,-26.55,-61.50,20.79,03/22/2020,00:00:40.500,0,0,0,0,0,0,0,9999,9.909,
01/01/2000,00:00:41.60,-82.03,2.93,-1004.88,2.52,1.98,2.37,11.10,-24.75,-61.50,20.79,03/22/2020,00:00:40.600,0,0,0,0,0,0,0,9999,9.910,
01/01/2000,00:00:41.70,-82.52,-28.32,-988.77,-1.05,0.91,-0.19,10.80,-24.90,-61.35,20.46,03/22/2020,00:00:40.700,0,0,0,0,0,0,0,9999,9.910,
01/01/2000,00:00:41.80,-62.01,-8.79,-1000.49,-3.11,3.58,-1.32,12.0,-24.60,-62.40,20.79,03/22/2020,00:00:40.800,0,0,0,0,0,0,0,9999,9.910,
01/01/2000,00:00:41.90,-78.61,-13.67,-975.59,1.90,0.31,1.17,13.20,-24.75,-62.85,20.70,03/22/2020,00:00:40.900,0,0,0,0,0,0,0,9999,9.910,
01/01/2000,00:00:42.00,-83.98,-7.81,-981.93,3.47,-1.60,0.31,12.0,-24.60,-63.75,20.60,03/22/2020,00:00:41.000,0,0,0,0,0,0,0,9999,9.911,
01/01/2000,00:00:42.10,-74.22,-12.21,-993.16,1.98,-2.23,0.60,9.90,-26.55,-58.65,20.60,03/22/2020,00:00:41.200,0,0,0,0,0,0,0,9999,9.883,
01/01/2000,00:00:42.30,-80.08,-2.44,-981.93,2.34,0.68,1.16,13.95,-25.05,-63.60,20.41,03/22/2020,00:00:41.300,0,0,0,0,0,0,0,9999,9.886,
01/01/2000,00:00:42.40,-70.31,-20.51,-979.49,-1.62,5.08,-3.55,13.50,-24.30,-65.10,20.51,03/22/2020,00:00:41.400,0,0,0,0,0,0,0,9999,9.886,
01/01/2000,00:00:42.50,-80.57,-20.51,-990.72,1.91,-0.96,2.29,13.95,-24.75,-62.85,20.84,03/22/2020,00:00:41.500,0,0,0,0,0,0,0,9999,9.882,
01/01/2000,00:00:42.62,-86.91,-7.81,-993.16,3.44,-1.78,1.24,10.65,-25.50,-58.65,20.60,03/22/2020,00:00:41.600,0,0,0,0,0,0,0,9999,9.884,
01/01/2000,00:00:42.72,-75.68,0.98,-983.40,-0.24,2.08,-1.95,11.25,-25.65,-63.15,20.65,03/22/2020,00:00:41.700,0,0,0,0,0,0,0,9999,9.885,
01/01/2000,00:00:42.81,-78.13,-0.98,-983.89,-1.09,3.03,0.23,14.10,-24.15,-64.80,20.65,03/22/2020,00:00:41.800,0,0,0,0,0,0,0,9999,9.885,
01/01/2000,00:00:42.91,-68.36,-15.14,-982.42,-2.47,4.66,-1.02,10.65,-25.05,-60.15,20.51,03/22/2020,00:00:41.900,0,0,0,0,0,0,0,9999,9.885,
01/01/2000,00:00:43.01,-73.24,-14.16,-987.30,0.53,-0.76,0.69,11.55,-23.10,-63.45,20.79,03/22/2020,00:00:42.000,0,0,0,0,0,0,0,9999,9.885,
01/01/2000,00:00:43.11,-71.29,-7.32,-995.12,-1.78,-0.21,-2.19,13.20,-22.95,-63.30,20.79,03/22/2020,00:00:42.100,0,0,0,0,0,0,0,9999,9.886,
01/01/2000,00:00:43.21,-59.08,-4.39,-989.26,-0.44,0.87,-0.18,11.25,-26.40,-60.60,20.70,03/22/2020,00:00:42.200,0,0,0,0,0,0,0,9999,9.886,
01/01/2000,00:00:43.31,-89.36,-18.07,-979.98,2.76,-1.66,1.07,11.10,-25.50,-60.45,20.79,03/22/2020,00:00:42.300,0,0,0,0,0,0,0,9999,9.886,
01/01/2000,00:00:43.41,-78.13,-10.25,-994.14,0.97,2.69,-1.18,13.50,-22.50,-62.85,20.79,03/22/2020,00:00:42.400,0,0,0,0,0,0,0,9999,9.887,
01/01/2000,00:00:43.51,-70.31,-16.60,-987.30,2.31,-0.34,2.77,12.15,-23.25,-63.60,20.84,03/22/2020,00:00:42.500,0,0,0,0,0,0,0,9999,9.887,
01/01/2000,00:00:43.61,-75.20,-12.21,-997.56,-0.49,1.50,-2.66,12.30,-22.65,-64.20,20.65,03/22/2020,00:00:42.600,0,0,0,0,0,0,0,9999,9.887,
01/01/2000,00:00:43.71,-76.66,-10.74,-958.98,-1.03,3.10,-1.89,11.25,-25.65,-61.65,20.84,03/22/2020,00:00:42.700,0,0,0,0,0,0,0,9999,9.887,
01/01/2000,00:00:43.81,-79.59,-5.86,-979.98,0.15,-1.01,-2.36,12.30,-24.90,-62.40,20.99,03/22/2020,00:00:42.800,0,0,0,0,0,0,0,9999,9.888,
01/01/2000,00:00:43.91,-70.80,-10.25,-979.00,0.79,-2.30,-0.31,11.55,-24.90,-61.35,20.70,03/22/2020,00:00:42.900,0,0,0,0,0,0,0,9999,9.888,
01/01/2000,00:00:44.01,-75.20,-6.35,-989.75,-0.92,1.01,-1.56,10.65,-25.50,-60.75,20.60,03/22/2020,00:00:43.000,0,0,0,0,0,0,0,9999,9.888,
01/01/2000,00:00:44.11,-81.54,-15.63,-976.56,-2.01,3.15,-1.76,12.90,-23.70,-65.10,20.46,03/22/2020,00:00:43.100,0,0,0,0,0,0,0,9999,9.889,
01/01/2000,00:00:44.21,-57.62,-10.74,-980.96,-1.79,1.63,-0.53,13.80,-24.15,-63.45,20.94,03/22/2020,00:00:43.200,0,0,0,0,0,0,0,9999,9.889,
01/01/2000,00:00:44.31,-84.96,-2.44,-1001.46,0.97,-1.0,1.40,13.20,-25.05,-62.85,20.70,03/22/2020,00:00:43.300,0,0,0,0,0,0,0,9999,9.889,
01/01/2000,00:00:44.41,-75.68,2.44,-984.86,1.48,-1.71,6.05,10.65,-25.05,-60.15,20.94,03/22/2020,00:00:43.400,0,0,0,0,0,0,0,9999,9.889,
01/01/2000,00:00:44.51,-85.45,0.49,-925.78,-1.63,1.85,-1.54,11.55,-24.90,-60.60,20.94,03/22/2020,00:00:43.500,0,0,0,0,0,0,0,9999,9.890,
01/01/2000,00:00:44.61,-81.05,0.0,-1022.46,2.84,-2.12,3.27,13.95,-24.0,-63.60,20.70,03/22/2020,00:00:43.600,0,0,0,0,0,0,0,9999,9.890,
01/01/2000,00:00:44.71,-75.20,-18.55,-958.01,0.33,2.21,-1.97,13.20,-24.0,-63.30,20.70,03/22/2020,00:00:43.700,0,0,0,0,0,0,0,9999,9.890,
01/01/2000,00:00:44.81,-62.99,-6.35,-991.70,-1.62,0.69,-3.69,11.55,-25.65,-62.40,20.94,03/22/2020,00:00:43.800,0,0,0,0,0,0,0,9999,9.890,
01/01/2000,00:00:44.91,-69.34,-0.98,-990.23,-1.26,1.65,-4.85,12.90,-24.0,-63.30,20.46,03/22/2020,00:00:43.900,0,0,0,0,0,0,0,9999,9.893,
01/01/2000,00:00:45.01,-91.31,-5.86,-983.40,2.41,-1.10,3.28,10.65,-25.05,-61.80,20.60,03/22/2020,00:00:44.000,0,0,0,0,0,0,0,9999,9.891,
01/01/2000,00:00:45.11,-70.80,-10.25,-1009.28,-1.33,3.21,-0.18,10.50,-26.70,-61.35,20.79,03/22/2020,00:00:44.100,0,0,0,0,0,0,0,9999,9.893,
01/01/2000,00:00:45.21,-74.22,-14.65,-970.21,1.61,-0.33,2.93,11.55,-26.70,-60.30,20.70,03/22/2020,00:00:44.200,0,0,0,0,0,0,0,9999,9.894,
01/01/2000,00:00:45.31,-81.05,-18.55,-987.30,2.91,-2.39,0.72,12.45,-24.0,-64.65,20.65,03/22/2020,00:00:44.300,0,0,0,0,0,0,0,9999,9.894,
01/01/2000,00:00:45.41,-81.54,-19.04,-991.21,2.56,-0.98,-0.14,13.20,-24.30,-61.80,20.94,03/22/2020,00:00:44.400,0,0,0,0,0,0,0,9999,9.894,
01/01/2000,00:00:45.51,-66.89,-8.30,-979.49,2.08,-1.31,1.95,11.55,-24.90,-60.60,20.79,03/22/2020,00:00:44.500,0,0,0,0,0,0,0,9999,9.894,
01/01/2000,00:00:45.61,-69.82,-0.49,-985.84,-1.95,3.31,-3.37,10.20,-25.65,-60.90,20.79,03/22/2020,00:00:44.600,0,0,0,0,0,0,0,9999,9.895,
01/01/2000,00:00:45.71,-78.13,-11.23,-983.40,2.77,0.81,1.05,10.80,-24.60,-60.90,20.94,03/22/2020,00:00:44.700,0,0,0,0,0,0,0,9999,9.895,
01/01/2000,00:00:45.81,-73.73,-13.18,-976.56,2.60,-1.28,2.82,12.60,-24.60,-63.15,20.94,03/22/2020,00:00:44.800,0,0,0,0,0,0,0,9999,9.895,
01/01/2000,00:00:45.90,-76.17,-9.77,-978.03,-1.74,4.55,-1.79,10.35,-24.75,-60.15,20.84,03/22/2020,00:00:44.900,0,0,0,0,0,0,0,9999,9.895,
01/01/2000,00:00:46.00,-77.64,-11.72,-978.52,-1.34,0.50,-0.96,12.0,-23.85,-63.75,20.70,03/22/2020,00:00:45.000,0,0,0,0,0,0,0,9999,9.896,
01/01/2000,00:00:46.10,-69.82,-11.23,-996.09,0.89,0.24,0.37,12.60,-24.15,-63.75,20.60,03/22/2020,00:00:45.100,0,0,0,0,0,0,0,9999,9.896,
01/01/2000,00:00:46.20,-74.71,-14.16,-984.38,1.27,-1.06,2.69,11.25,-25.65,-60.90,20.60,03/22/2020,00:00:45.200,0,0,0,0,0,0,0,9999,9.896,
01/01/2000,00:00:46.30,-81.54,5.37,-1022.46,-0.18,0.95,-4.27,14.10,-26.10,-63.15,20.99,03/22/2020,00:00:45.300,0,0,0,0,0,0,0,9999,9.896,
01/01/2000,00:00:46.40,-71.78,-8.30,-946.29,2.23,-1.51,2.42,12.30,-24.15,-64.50,20.51,03/22/2020,00:00:45.400,0,0,0,0,0,0,0,9999,9.897,
01/01/2000,00:00:46.50,-67.87,-16.11,-1007.32,-1.32,1.19,-1.07,12.60,-23.85,-63.15,20.60,03/22/2020,00:00:45.500,0,0,0,0,0,0,0,9999,9.897,
01/01/2000,00:00:46.60,-88.87,-7.32,-967.77,-1.90,2.98,-0.95,11.40,-24.0,-61.80,20.51,03/22/2020,00:00:45.600,0,0,0,0,0,0,0,9999,9.897,
01/01/2000,00:00:46.70,-84.96,-8.79,-1009.28,-0.67,1.28,-0.86,14.40,-24.15,-64.20,21.03,03/22/2020,00:00:45.700,0,0,0,0,0,0,0,9999,9.897,
01/01/2000,00:00:46.80,-80.57,-1.46,-979.98,-0.64,2.39,-0.08,10.50,-26.10,-60.60,20.94,03/22/2020,00:00:45.800,0,0,0,0,0,0,0,9999,9.898,
01/01/2000,00:00:46.90,-78.61,-2.44,-975.10,0.48,0.60,0.70,11.25,-24.60,-60.90,20.99,03/22/2020,00:00:45.000,0,0,0,0,0,0,0,9999,9.873,
01/01/2000,00:00:47.10,-86.43,-11.72,-965.33,-0.53,2.11,0.06,14.10,-24.90,-62.70,21.13,03/22/2020,00:00:46.100,0,0,0,0,0,0,0,9999,9.871,
01/01/2000,00:00:47.20,-78.61,-0.49,-992.19,-0.31,0.85,-2.32,14.25,-24.0,-63.60,20.79,03/22/2020,00:00:46.200,0,0,0,0,0,0,0,9999,9.876,
01/01/2000,00:00:47.30,-66.41,-18.07,-978.52,3.02,-1.21,0.93,12.30,-24.60,-63.15,20.79,03/22/2020,00:00:46.300,0,0,0,0,0,0,0,9999,9.876,
01/01/2000,00:00:47.40,-74.22,-14.16,-980.96,1.85,-0.61,4.17,11.55,-24.60,-59.85,20.94,03/22/2020,00:00:46.400,0,0,0,0,0,0,0,9999,9.877,
01/01/2000,00:00:47.50,-72.75,-1.95,-998.05,0.36,2.43,-3.26,12.15,-26.25,-59.40,21.13,03/22/2020,00:00:46.500,0,0,0,0,0,0,0,9999,9.877,
01/01/2000,00:00:47.60,-75.20,-18.07,-989.75,-0.84,2.13,0.93,11.70,-23.70,-64.65,20.79,03/22/2020,00:00:46.600,0,0,0,0,0,0,0,9999,9.873,
01/01/2000,00:00:47.70,-51.27,-19.53,-971.19,-1.37,0.20,-0.20,13.35,-23.40,-63.15,21.03,03/22/2020,00:00:46.700,0,0,0,0,0,0,0,9999,9.877,
01/01/2000,00:00:47.80,-63.96,-13.67,-986.82,0.53,-0.20,-0.22,11.70,-23.25,-63.30,20.99,03/22/2020,00:00:46.800,0,0,0,0,0,0,0,9999,9.878,
01/01/2000,00:00:47.90,-66.89,-22.95,-985.35,1.69,-0.40,1.68,10.50,-24.60,-60.90,20.84,03/22/2020,00:00:46.900,0,0,0,0,0,0,0,9999,9.878,
01/01/2000,00:00:48.00,-81.05,-28.32,-1010.25,-0.02,2.79,-0.24,11.25,-25.35,-62.10,21.03,03/22/2020,00:00:46.000,0,0,0,0,0,0,0,9999,9.878,
01/01/2000,00:00:48.10,-83.50,-9.28,-986.33,0.18,-2.98,0.85,10.35,-25.50,-60.75,20.65,03/22/2020,00:00:47.100,0,0,0,0,0,0,0,9999,9.878,
01/01/2000,00:00:48.20,-70.31,-10.25,-975.59,3.41,-0.44,-0.23,10.50,-24.60,-60.90,20.79,03/22/2020,00:00:47.200,0,0,0,0,0,0,0,9999,9.879,
01/01/2000,00:00:48.30,-73.73,-16.60,-995.12,2.22,-0.68,2.66,13.80,-25.65,-64.50,20.94,03/22/2020,00:00:47.300,0,0,0,0,0,0,0,9999,9.879,
01/01/2000,00:00:48.40,-54.20,-12.21,-984.38,1.11,1.82,-0.79,12.15,-24.30,-62.55,20.79,03/22/2020,00:00:47.400,0,0,0,0,0,0,0,9999,9.879,
01/01/2000,00:00:48.50,-85.45,-25.39,-994.14,1.26,-0.30,1.54,12.30,-23.10,-63.75,20.94,03/22/2020,00:00:47.500,0,0,0,0,0,0,0,9999,9.880,
01/01/2000,00:00:48.60,-63.48,-9.28,-977.05,0.52,-0.46,1.72,10.80,-25.65,-60.30,20.79,03/22/2020,00:00:47.600,0,0,0,0,0,0,0,9999,9.880,
01/01/2000,00:00:48.70,-71.78,-3.91,-976.56,0.97,-0.03,2.19,12.90,-25.80,-59.70,20.94,03/22/2020,00:00:47.700,0,0,0,0,0,0,0,9999,9.880,
01/01/2000,00:00:48.80,-75.68,-10.74,-983.40,2.53,-0.13,1.90,13.95,-23.70,-64.05,20.60,03/22/2020,00:00:47.800,0,0,0,0,0,0,0,9999,9.880,
01/01/2000,00:00:48.90,-76.17,-20.51,-975.59,-1.50,2.79,-1.63,13.05,-23.40,-63.75,20.94,03/22/2020,00:00:47.900,0,0,0,0,0,0,0,9999,9.881,
01/01/2000,00:00:49.00,-80.08,-10.25,-975.10,-1.05,2.50,-1.04,11.70,-27.30,-61.20,21.03,03/22/2020,00:00:47.000,0,0,0,0,0,0,0,9999,9.877,
01/01/2000,00:00:49.11,-81.54,-4.39,-960.94,2.40,0.47,0.59,12.0,-24.90,-63.75,20.79,03/22/2020,00:00:48.100,0,0,0,0,0,0,0,9999,9.879,
01/01/2000,00:00:49.21,-64.94,-19.53,-1006.35,-2.47,2.48,0.17,12.0,-24.90,-61.65,20.94,03/22/2020,00:00:48.200,0,0,0,0,0,0,0,9999,9.879,
01/01/2000,00:00:49.31,-74.22,-11.72,-978.52,1.43,-0.88,1.13,12.15,-24.30,-61.80,20.94,03/22/2020,00:00:48.300,0,0,0,0,0,0,0,9999,9.879,
01/01/2000,00:00:49.41,-78.13,-8.30,-1015.63,-1.53,1.82,-3.43,12.90,-25.05,-62.25,20.94,03/22/2020,00:00:48.400,0,0,0,0,0,0,0,9999,9.880,
01/01/2000,00:00:49.51,-70.31,-4.39,-992.68,1.57,-0.94,0.88,13.95,-24.15,-63.45,20.84,03/22/2020,00:00:48.500,0,0,0,0,0,0,0,9999,9.880,
01/01/2000,00:00:49.61,-87.40,-22.46,-987.30,-2.27,1.29,-0.28,13.35,-24.60,-63.75,20.84,03/22/2020,00:00:48.600,0,0,0,0,0,0,0,9999,9.880,
01/01/2000,00:00:49.71,-77.64,-27.34,-1002.93,-1.86,1.08,-2.11,11.10,-25.80,-59.70,20.79,03/22/2020,00:00:48.700,0,0,0,0,0,0,0,9999,9.880,
01/01/2000,00:00:49.81,-78.61,-1.46,-960.94,3.47,-0.10,1.37,11.40,-25.80,-60.75,21.13,03/22/2020,00:00:48.800,0,0,0,0,0,0,0,9999,9.881,
01/01/2000,00:00:49.91,-78.61,-27.34,-975.10,-3.31,2.76,-0.05,12.60,-24.15,-63.15,20.84,03/22/2020,00:00:48.900,0,0,0,0,0,0,0,9999,9.883,
01/01/2000,00:00:50.01,-82.03,-15.63,-988.28,0.50,-1.50,0.59,12.45,-24.30,-64.35,20.84,03/22/2020,00:00:48.000,0,0,0,0,0,0,0,9999,9.883,
01/01/2000,00:00:50.11,-81.54,-20.51,-994.14,1.19,-1.20,0.69,12.60,-24.90,-61.65,20.94,03/22/2020,00:00:49.100,0,0,0,0,0,0,0,9999,9.884,
01/01/2000,00:00:50.21,-77.15,-16.60,-990.23,4.02,0.72,1.64,13.35,-24.15,-63.75,21.03,03/22/2020,00:00:49.200,0,0,0,0,0,0,0,9999,9.884,
01/01/2000,00:00:50.31,-83.98,-18.07,-996.58,3.61,-2.25,0.76,11.40,-26.55,-61.20,20.99,03/22/2020,00:00:49.300,0,0,0,0,0,0,0,9999,9.884,
01/01/2000,00:00:50.41,-97.66,-8.79,-973.63,-0.41,2.54,-1.73,10.65,-24.30,-60.75,20.99,03/22/2020,00:00:49.400,0,0,0,0,0,0,0,9999,9.884,
01/01/2000,00:00:50.51,-71.29,-21.97,-1002.44,0.31,3.14,-2.96,13.35,-24.90,-62.40,20.94,03/22/2020,00:00:49.500,0,0,0,0,0,0,0,9999,9.885,
01/01/2000,00:00:50.61,-79.59,-19.04,-972.66,0.84,3.40,-2.84,13.50,-22.95,-64.05,21.32,03/22/2020,00:00:49.600,0,0,0,0,0,0,0,9999,9.885,
01/01/2000,00:00:50.71,-83.50,-18.55,-994.63,1.47,-1.90,1.82,12.30,-24.15,-63.15,21.13,03/22/2020,00:00:49.700,0,0,0,0,0,0,0,9999,9.885,
01/01/2000,00:00:50.81,-84.47,-16.11,-982.42,0.67,-1.72,0.65,11.40,-25.80,-61.80,20.79,03/22/2020,00:00:49.800,0,0,0,0,0,0,0,9999,9.885,
01/01/2000,00:00:50.91,-66.41,-12.70,-986.33,-0.59,2.37,0.84,11.70,-24.30,-60.45,21.03,03/22/2020,00:00:49.900,0,0,0,0,0,0,0,9999,9.886,
01/01/2000,00:00:51.00,-73.73,-20.51,-993.65,0.64,-0.94,1.42,12.0,-24.60,-62.70,20.84,03/22/2020,00:00:49.000,0,0,0,0,0,0,0,9999,9.886,
01/01/2000,00:00:51.10,-79.59,-10.25,-977.05,-1.0,0.87,-1.19,14.70,-24.0,-63.30,21.03,03/22/2020,00:00:50.100,0,0,0,0,0,0,0,9999,9.886,
01/01/2000,00:00:51.20,-65.43,-16.60,-973.14,-1.85,1.13,-3.0,11.40,-25.05,-61.80,21.03,03/22/2020,00:00:50.200,0,0,0,0,0,0,0,9999,9.886,
01/01/2000,00:00:51.30,-73.73,-23.44,-1004.88,-0.66,2.45,-0.53,13.50,-25.05,-63.60,21.03,03/22/2020,00:00:50.300,0,0,0,0,0,0,0,9999,9.886,
01/01/2000,00:00:51.40,-84.47,-7.32,-991.21,3.55,-2.87,0.48,15.45,-24.15,-62.70,20.99,03/22/2020,00:00:50.400,0,0,0,0,0,0,0,9999,9.887,
01/01/2000,00:00:51.50,-74.71,-16.11,-989.26,2.96,0.14,0.39,10.65,-25.50,-61.80,21.13,03/22/2020,00:00:50.400,0,0,0,0,0,0,0,9999,9.863,
01/01/2000,00:00:51.70,-76.17,-5.37,-992.68,1.70,-2.47,1.43,12.45,-25.50,-64.35,21.03,03/22/2020,00:00:50.600,0,0,0,0,0,0,0,9999,9.863,
01/01/2000,00:00:51.80,-63.48,6.35,-963.38,2.02,-3.49,1.91,12.90,-24.0,-62.85,21.22,03/22/2020,00:00:50.700,0,0,0,0,0,0,0,9999,9.867,
01/01/2000,00:00:51.90,-68.36,-7.81,-987.30,-1.19,3.39,-1.92,13.35,-24.60,-63.15,20.84,03/22/2020,00:00:50.800,0,0,0,0,0,0,0,9999,9.867,
01/01/2000,00:00:52.00,-58.11,-12.70,-983.89,-3.05,2.72,-2.93,12.15,-25.50,-60.75,21.32,03/22/2020,00:00:50.900,0,0,0,0,0,0,0,9999,9.868,
01/01/2000,00:00:52.10,-82.52,-13.18,-985.84,1.31,-1.37,1.28,12.0,-25.65,-60.90,20.94,03/22/2020,00:00:51.000,0,0,0,0,0,0,0,9999,9.868,
01/01/2000,00:00:52.20,-73.73,-11.72,-965.33,-1.30,1.61,-3.09,11.25,-24.60,-60.90,21.13,03/22/2020,00:00:51.100,0,0,0,0,0,0,0,9999,9.868,
01/01/2000,00:00:52.30,-76.17,-9.28,-979.00,-3.16,2.47,-0.47,13.50,-24.0,-63.30,21.13,03/22/2020,00:00:51.200,0,0,0,0,0,0,0,9999,9.869,
01/01/2000,00:00:52.40,-72.75,-21.48,-995.12,2.69,-1.87,2.40,11.25,-25.65,-62.10,21.13,03/22/2020,00:00:51.300,0,0,0,0,0,0,0,9999,9.869,
01/01/2000,00:00:52.50,-63.96,-17.09,-981.93,3.30,-2.25,2.30,12.90,-24.0,-63.60,21.18,03/22/2020,00:00:51.400,0,0,0,0,0,0,0,9999,9.869,
01/01/2000,00:00:52.60,-86.43,-14.16,-979.49,0.12,0.21,-3.09,12.90,-24.75,-62.85,20.94,03/22/2020,00:00:51.500,0,0,0,0,0,0,0,9999,9.869,
01/01/2000,00:00:52.70,-68.85,-13.18,-972.17,-1.13,1.49,-3.68,11.70,-25.50,-61.80,20.84,03/22/2020,00:00:51.600,0,0,0,0,0,0,0,9999,9.870,
01/01/2000,00:00:52.80,-74.22,-9.77,-987.79,1.10,0.93,2.60,11.10,-25.05,-60.75,21.18,03/22/2020,00:00:51.700,0,0,0,0,0,0,0,9999,9.870,
01/01/2000,00:00:52.90,-71.78,-11.72,-980.96,2.40,-2.18,2.37,13.05,-23.40,-63.45,21.18,03/22/2020,00:00:51.800,0,0,0,0,0,0,0,9999,9.870,
01/01/2000,00:00:53.00,-72.75,-26.37,-980.96,1.43,-2.49,2.48,13.05,-23.85,-63.15,20.99,03/22/2020,00:00:51.900,0,0,0,0,0,0,0,9999,9.866,
01/01/2000,00:00:53.10,-73.24,-12.70,-984.38,2.90,-0.36,-1.28,13.50,-24.30,-64.65,20.94,03/22/2020,00:00:52.000,0,0,0,0,0,0,0,9999,9.871,
01/01/2000,00:00:53.20,-69.82,-4.88,-984.86,3.60,-1.31,2.53,10.65,-24.75,-60.15,21.03,03/22/2020,00:00:52.100,0,0,0,0,0,0,0,9999,9.871,
01/01/2000,00:00:53.30,-66.89,-17.09,-1000.49,1.30,-1.06,1.53,10.35,-23.25,-60.75,20.99,03/22/2020,00:00:52.200,0,0,0,0,0,0,0,9999,9.848,
01/01/2000,00:00:53.50,-75.68,-15.63,-986.82,2.38,-1.17,0.08,14.25,-25.05,-63.60,21.18,03/22/2020,00:00:52.400,0,0,0,0,0,0,0,9999,9.852,
01/01/2000,00:00:53.60,-72.27,0.0,-957.52,-1.76,3.18,0.04,11.70,-25.50,-61.20,20.84,03/22/2020,00:00:52.500,0,0,0,0,0,0,0,9999,9.852,
01/01/2000,00:00:53.70,-60.06,-12.21,-974.12,0.04,2.65,0.56,13.80,-23.85,-64.20,20.99,03/22/2020,00:00:52.600,0,0,0,0,0,0,0,9999,9.853,
01/01/2000,00:00:53.80,-81.05,-10.25,-1013.67,-2.52,1.86,-2.32,12.0,-23.40,-63.75,21.22,03/22/2020,00:00:52.700,0,0,0,0,0,0,0,9999,9.849,
01/01/2000,00:00:53.91,-78.13,-19.53,-987.79,2.21,-1.85,-0.09,13.20,-24.30,-62.85,21.03,03/22/2020,00:00:52.800,0,0,0,0,0,0,0,9999,9.851,
01/01/2000,00:00:54.01,-80.08,-10.25,-984.86,3.31,0.35,1.96,12.60,-24.90,-61.35,21.18,03/22/2020,00:00:52.900,0,0,0,0,0,0,0,9999,9.851,
01/01/2000,00:00:54.11,-81.05,-6.35,-983.89,1.74,-0.69,1.38,11.10,-24.0,-61.50,21.18,03/22/2020,00:00:53.000,0,0,0,0,0,0,0,9999,9.852,
01/01/2000,00:00:54.21,-80.57,-15.14,-999.02,-1.23,2.66,-2.02,12.90,-23.70,-62.85,21.03,03/22/2020,00:00:53.100,0,0,0,0,0,0,0,9999,9.852,
01/01/2000,00:00:54.31,-68.85,-6.35,-975.59,0.72,-0.05,3.18,13.05,-23.10,-62.10,21.03,03/22/2020,00:00:53.200,0,0,0,0,0,0,0,9999,9.852,
01/01/2000,00:00:54.41,-88.87,-10.25,-1006.35,2.99,0.44,1.40,10.20,-24.60,-60.60,20.99,03/22/2020,00:00:53.300,0,0,0,0,0,0,0,9999,9.832,
01/01/2000,00:00:54.61,-68.36,-16.60,-986.33,-1.08,-1.33,-0.54,10.65,-25.50,-61.50,21.22,03/22/2020,00:00:53.500,0,0,0,0,0,0,0,9999,9.834,
01/01/2000,00:00:54.71,-88.87,-5.37,-993.65,1.80,-3.07,0.47,11.10,-25.05,-60.75,21.18,03/22/2020,00:00:53.600,0,0,0,0,0,0,0,9999,9.834,
01/01/2000,00:00:54.81,-72.75,-14.65,-977.54,-1.74,2.53,-2.0,13.05,-26.70,-62.10,20.94,03/22/2020,00:00:53.700,0,0,0,0,0,0,0,9999,9.834,
01/01/2000,00:00:54.91,-70.31,-6.84,-991.70,-2.58,1.79,-1.82,15.15,-23.85,-64.80,21.22,03/22/2020,00:00:53.800,0,0,0,0,0,0,0,9999,9.835,
01/01/2000,00:00:55.01,-77.64,-11.72,-971.19,1.63,-1.61,2.35,13.50,-23.70,-64.05,21.18,03/22/2020,00:00:53.900,0,0,0,0,0,0,0,9999,9.835,
01/01/2000,00:00:55.11,-71.29,-7.32,-997.07,-1.77,0.07,-0.47,13.95,-24.30,-63.30,21.32,03/22/2020,00:00:54.000,0,0,0,0,0,0,0,9999,9.835,
01/01/2000,00:00:55.21,-81.05,-17.58,-982.42,-0.79,0.50,-1.15,12.15,-24.30,-61.80,21.03,03/22/2020,00:00:54.100,0,0,0,0,0,0,0,9999,9.836,
01/01/2000,00:00:55.31,-71.29,-10.25,-980.96,1.63,-0.40,2.89,10.50,-25.35,-60.30,20.94,03/22/2020,00:00:54.200,0,0,0,0,0,0,0,9999,9.838,
01/01/2000,00:00:55.41,-58.59,-7.81,-989.26,-0.78,2.50,-0.46,13.95,-23.25,-64.05,21.32,03/22/2020,00:00:54.300,0,0,0,0,0,0,0,9999,9.838,
01/01/2000,00:00:55.51,-67.87,-16.60,-979.00,2.57,-0.13,1.58,13.80,-24.90,-63.15,21.13,03/22/2020,00:00:54.400,0,0,0,0,0,0,0,9999,9.839,
01/01/2000,00:00:55.61,-62.50,-9.28,-999.51,3.08,-3.57,0.34,11.25,-25.35,-62.40,21.22,03/22/2020,00:00:54.500,0,0,0,0,0,0,0,9999,9.839,
01/01/2000,00:00:55.71,-65.92,-6.84,-953.61,3.27,-1.98,1.87,12.45,-24.75,-64.05,21.18,03/22/2020,00:00:54.600,0,0,0,0,0,0,0,9999,9.839,
01/01/2000,00:00:55.81,-69.34,-10.25,-984.86,2.26,0.88,2.40,11.25,-26.10,-60.60,21.22,03/22/2020,00:00:54.700,0,0,0,0,0,0,0,9999,9.839,
01/01/2000,00:00:55.91,-72.75,-9.28,-977.54,-2.83,0.50,-0.55,11.70,-25.50,-60.45,21.46,03/22/2020,00:00:54.800,0,0,0,0,0,0,0,9999,9.840,
01/01/2000,00:00:56.01,-61.04,-21.00,-982.42,2.83,-1.24,1.63,9.60,-24.75,-60.45,21.32,03/22/2020,00:00:54.900,0,0,0,0,0,0,0,9999,9.840,
01/01/2000,00:00:56.11,-87.89,-7.32,-977.54,0.95,-1.66,3.66,12.30,-24.60,-63.75,20.84,03/22/2020,00:00:55.000,0,0,0,0,0,0,0,9999,9.840,
01/01/2000,00:00:56.21,-70.31,-7.81,-991.21,0.84,0.57,-0.31,13.20,-23.25,-64.05,21.46,03/22/2020,00:00:55.100,0,0,0,0,0,0,0,9999,9.841,
01/01/2000,00:00:56.31,-75.20,-15.63,-990.72,-1.08,3.15,0.18,12.0,-24.90,-59.85,21.13,03/22/2020,00:00:55.200,0,0,0,0,0,0,0,9999,9.841,
01/01/2000,00:00:56.41,-77.15,-19.53,-976.56,2.24,-1.23,1.02,10.50,-24.60,-60.90,21.18,03/22/2020,00:00:55.300,0,0,0,0,0,0,0,9999,9.841,
01/01/2000,00:00:56.51,-90.33,-5.86,-987.30,1.82,-0.23,2.98,10.80,-25.35,-61.50,21.32,03/22/2020,00:00:55.400,0,0,0,0,0,0,0,9999,9.842,
01/01/2000,00:00:56.60,-69.82,-4.39,-983.89,2.76,0.09,2.21,12.90,-23.70,-62.85,21.37,03/22/2020,00:00:55.500,0,0,0,0,0,0,0,9999,9.842,
01/01/2000,00:00:56.70,-99.12,-11.23,-975.59,1.11,0.79,2.60,10.80,-25.35,-60.30,21.13,03/22/2020,00:00:55.600,0,0,0,0,0,0,0,9999,9.842,
01/01/2000,00:00:56.80,-80.08,-5.37,-990.23,1.26,-0.42,0.56,13.35,-24.60,-63.45,21.32,03/22/2020,00:00:55.700,0,0,0,0,0,0,0,9999,9.842,
01/01/2000,00:00:56.90,-73.24,-4.39,-982.91,-1.32,1.46,-1.18,13.20,-23.25,-63.30,21.32,03/22/2020,00:00:55.800,0,0,0,0,0,0,0,9999,9.843,
01/01/2000,00:00:57.00,-76.17,-8.79,-981.45,0.38,1.36,-0.40,10.50,-26.40,-59.55,21.22,03/22/2020,00:00:55.900,0,0,0,0,0,0,0,9999,9.843,
01/01/2000,00:00:57.10,-72.75,-19.53,-993.16,1.90,-1.73,4.34,9.30,-25.80,-59.70,21.37,03/22/2020,00:00:56.000,0,0,0,0,0,0,0,9999,9.843,
01/01/2000,00:00:57.20,-80.08,2.93,-983.89,3.73,-1.33,0.47,12.90,-25.05,-62.85,21.56,03/22/2020,00:00:56.100,0,0,0,0,0,0,0,9999,9.844,
01/01/2000,00:00:57.30,-70.31,-6.35,-979.49,-0.18,0.24,1.24,11.40,-24.0,-63.30,21.13,03/22/2020,00:00:56.200,0,0,0,0,0,0,0,9999,9.844,
01/01/2000,00:00:57.40,-63.48,-9.28,-991.70,-1.58,-0.86,-1.08,12.0,-23.85,-60.30,21.22,03/22/2020,00:00:56.300,0,0,0,0,0,0,0,9999,9.844,
01/01/2000,00:00:57.50,-75.20,-18.07,-967.77,-2.02,2.49,-0.47,12.45,-23.70,-64.05,21.13,03/22/2020,00:00:56.400,0,0,0,0,0,0,0,9999,9.844,
01/01/2000,00:00:57.60,-75.68,-21.97,-979.00,0.82,2.01,-2.43,11.25,-26.40,-61.65,21.03,03/22/2020,00:00:56.500,0,0,0,0,0,0,0,9999,9.845,
01/01/2000,00:00:57.70,-76.66,-10.74,-981.45,0.99,-1.13,0.78,10.50,-24.90,-61.65,21.13,03/22/2020,00:00:56.600,0,0,0,0,0,0,0,9999,9.845,
01/01/2000,00:00:57.80,-69.34,-15.63,-981.45,-3.82,2.16,-1.51,13.05,-23.40,-60.90,21.18,03/22/2020,00:00:56.700,0,0,0,0,0,0,0,9999,9.845,
01/01/2000,00:00:57.90,-73.73,-14.65,-988.28,-1.31,1.89,-2.11,13.20,-25.05,-64.35,21.22,03/22/2020,00:00:56.800,0,0,0,0,0,0,0,9999,9.846,
01/01/2000,00:00:58.00,-74.22,-14.65,-976.56,-1.40,1.04,-2.02,13.05,-24.60,-63.75,21.03,03/22/2020,00:00:56.900,0,0,0,0,0,0,0,9999,9.842,
01/01/2000,00:00:58.11,-84.47,-9.77,-986.33,-1.02,2.62,-0.91,13.50,-26.25,-61.20,21.22,03/22/2020,00:00:57.000,0,0,0,0,0,0,0,9999,9.844,
01/01/2000,00:00:58.21,-80.57,-12.21,-982.42,3.06,-1.31,2.24,11.55,-25.65,-62.40,21.18,03/22/2020,00:00:57.100,0,0,0,0,0,0,0,9999,9.845,
01/01/2000,00:00:58.31,-79.59,-2.93,-974.61,1.94,-2.33,1.43,14.10,-23.40,-62.70,21.03,03/22/2020,00:00:57.200,0,0,0,0,0,0,0,9999,9.845,
01/01/2000,00:00:58.41,-72.75,-3.42,-981.45,-0.74,0.01,-1.66,13.05,-24.60,-63.75,21.37,03/22/2020,00:00:57.300,0,0,0,0,0,0,0,9999,9.845,
01/01/2000,00:00:58.51,-74.71,-4.39,-990.72,1.47,-0.34,2.11,13.20,-24.75,-63.60,21.37,03/22/2020,00:00:57.400,0,0,0,0,0,0,0,9999,9.845,
01/01/2000,00:00:58.61,-71.78,-6.84,-989.75,2.68,-1.05,1.88,12.0,-25.35,-61.35,21.22,03/22/2020,00:00:57.500,0,0,0,0,0,0,0,9999,9.846,
01/01/2000,00:00:58.71,-72.75,-14.65,-985.84,-3.27,3.25,-0.02,9.30,-26.55,-58.65,21.32,03/22/2020,00:00:57.600,0,0,0,0,0,0,0,9999,9.830,
01/01/2000,00:00:58.88,-78.61,-22.46,-986.33,-1.82,2.14,-1.57,13.80,-24.15,-64.50,21.18,03/22/2020,00:00:57.800,0,0,0,0,0,0,0,9999,9.831,
01/01/2000,00:00:58.99,-89.36,-10.74,-987.79,2.08,0.05,1.27,14.70,-24.75,-63.60,21.18,03/22/2020,00:00:57.900,0,0,0,0,0,0,0,9999,9.829,
01/01/2000,00:00:59.09,-83.01,-21.00,-993.16,-0.98,2.80,-2.22,13.35,-24.60,-64.50,21.18,03/22/2020,00:00:58.000,0,0,0,0,0,0,0,9999,9.829,
01/01/2000,00:00:59.20,-74.71,-14.65,-985.84,0.28,2.64,-0.77,14.10,-23.40,-62.70,21.32,03/22/2020,00:00:58.100,0,0,0,0,0,0,0,9999,9.831,
01/01/2000,00:00:59.30,-81.54,-10.25,-991.21,1.11,-0.11,3.08,12.15,-25.50,-61.80,21.37,03/22/2020,00:00:58.200,0,0,0,0,0,0,0,9999,9.830,
01/01/2000,00:00:59.40,-68.85,-14.16,-990.23,-0.05,2.60,0.40,13.20,-24.75,-64.35,21.37,03/22/2020,00:00:58.300,0,0,0,0,0,0,0,9999,9.832,
01/01/2000,00:00:59.50,-53.71,-21.48,-957.52,-1.31,0.94,-1.99,12.15,-24.30,-65.40,21.32,03/22/2020,00:00:58.400,0,0,0,0,0,0,0,9999,9.832,
01/01/2000,00:00:59.60,-68.85,-9.77,-997.56,1.50,0.06,0.80,13.20,-23.70,-62.25,21.56,03/22/2020,00:00:58.500,0,0,0,0,0,0,0,9999,9.829,
01/01/2000,00:00:59.70,-76.17,-19.04,-943.85,1.82,-2.0,2.14,13.20,-25.05,-63.30,21.03,03/22/2020,00:00:58.600,0,0,0,0,0,0,0,9999,9.833,
01/01/2000,00:00:59.80,-79.10,0.49,-1019.53,0.81,-1.96,1.35,12.0,-26.10,-62.10,21.18,03/22/2020,00:00:58.700,0,0,0,0,0,0,0,9999,9.833,
01/01/2000,00:00:59.90,-83.50,-13.67,-966.80,-2.50,1.91,0.30,11.55,-24.60,-62.10,21.32,03/22/2020,00:00:58.800,0,0,0,0,0,0,0,9999,9.813,
01/01/2000,00:01:00.10,-71.29,-18.07,-994.14,-2.20,1.49,-4.31,13.95,-24.0,-64.05,21.37,03/22/2020,00:00:59.000,0,0,0,0,0,0,0,9999,9.813,
01/01/2000,00:01:00.20,-84.47,-12.70,-983.89,-1.57,1.98,-0.95,12.90,-24.30,-62.85,21.13,03/22/2020,00:00:59.100,0,0,0,0,0,0,0,9999,9.817,
01/01/2000,00:01:00.30,-81.54,-6.84,-974.61,2.32,-2.27,-0.16,11.70,-22.95,-63.60,21.46,03/22/2020,00:00:59.200,0,0,0,0,0,0,0,9999,9.817,
01/01/2000,00:01:00.40,-78.61,-17.58,-985.84,-0.93,2.10,2.05,10.80,-24.15,-60.90,21.56,03/22/2020,00:00:59.300,0,0,0,0,0,0,0,9999,9.818,
01/01/2000,00:01:00.50,-83.50,-8.30,-978.52,-0.99,1.28,-0.24,11.25,-24.60,-60.90,21.46,03/22/2020,00:00:59.400,0,0,0,0,0,0,0,9999,9.818,
01/01/2000,00:01:00.60,-76.66,-16.11,-1000.0,-0.08,1.04,1.01,12.30,-25.65,-62.10,21.22,03/22/2020,00:00:59.500,0,0,0,0,0,0,0,9999,9.818,
01/01/2000,00:01:00.70,-81.05,-5.86,-992.19,2.82,-0.80,2.61,14.25,-23.70,-62.25,21.46,03/22/2020,00:00:59.600,0,0,0,0,0,0,0,9999,9.818,
01/01/2000,00:01:00.80,-66.41,-2.44,-959.47,-3.57,2.88,-1.40,13.35,-23.85,-63.15,21.56,03/22/2020,00:00:59.700,0,0,0,0,0,0,0,9999,9.819,
01/01/2000,00:01:00.90,-80.08,-9.77,-993.65,1.80,-1.54,3.32,12.30,-23.40,-63.75,21.51,03/22/2020,00:00:59.800,0,0,0,0,0,0,0,9999,9.819,
01/01/2000,00:01:01.00,-87.89,-5.37,-954.59,-1.64,-0.69,-1.27,11.40,-25.05,-63.45,21.46,03/22/2020,00:00:59.900,0,0,0,0,0,0,0,9999,9.816,
01/01/2000,00:01:01.11,-75.20,-14.65,-968.26,-0.37,1.12,1.11,13.50,-24.30,-62.55,21.51,03/22/2020,00:01:00.000,0,0,0,0,0,0,0,9999,9.820,
01/01/2000,00:01:01.21,-81.54,-6.35,-998.05,0.56,3.24,-2.69,12.45,-24.30,-64.65,21.32,03/22/2020,00:01:00.100,0,0,0,0,0,0,0,9999,9.820,
01/01/2000,00:01:01.31,-84.47,-13.18,-979.00,2.05,0.71,2.24,13.05,-23.40,-62.70,21.32,03/22/2020,00:01:00.200,0,0,0,0,0,0,0,9999,9.820,
01/01/2000,00:01:01.41,-82.03,-0.98,-1002.44,2.10,-2.03,-0.88,11.55,-24.60,-60.60,21.51,03/22/2020,00:01:00.300,0,0,0,0,0,0,0,9999,9.821,
01/01/2000,00:01:01.51,-68.36,-23.93,-972.66,0.76,1.21,-0.19,12.60,-24.60,-61.65,21.56,03/22/2020,00:01:00.400,0,0,0,0,0,0,0,9999,9.821,
01/01/2000,00:01:01.61,-65.43,-20.51,-986.82,-2.48,1.35,-1.16,10.65,-26.25,-61.20,21.32,03/22/2020,00:01:00.500,0,0,0,0,0,0,0,9999,9.821,
01/01/2000,00:01:01.71,-74.22,-21.97,-993.16,3.25,-0.15,2.28,12.15,-24.30,-62.25,21.56,03/22/2020,00:01:00.600,0,0,0,0,0,0,0,9999,9.822,
01/01/2000,00:01:01.81,-76.66,-8.79,-989.75,1.23,-2.44,0.57,13.35,-23.40,-63.15,21.46,03/22/2020,00:01:00.700,0,0,0,0,0,0,0,9999,9.822,
01/01/2000,00:01:01.91,-85.94,-10.25,-1012.21,-1.76,3.18,-0.95,13.50,-22.95,-63.30,21.32,03/22/2020,00:01:00.800,0,0,0,0,0,0,0,9999,9.822,
01/01/2000,00:01:02.01,-66.41,-21.48,-963.38,2.47,0.51,2.02,14.10,-24.15,-63.15,21.32,03/22/2020,00:01:00.900,0,0,0,0,0,0,0,9999,9.822,
01/01/2000,00:01:02.10,-55.18,-16.60,-980.96,3.20,-1.31,2.58,9.45,-26.40,-61.35,21.32,03/22/2020,00:01:01.000,0,0,0,0,0,0,0,9999,9.823,
01/01/2000,00:01:02.20,-67.38,-8.30,-999.51,-2.25,1.34,0.44,11.55,-25.65,-60.60,21.37,03/22/2020,00:01:01.100,0,0,0,0,0,0,0,9999,9.823,
01/01/2000,00:01:02.30,-94.73,0.49,-999.02,-0.41,1.79,-0.47,13.05,-22.35,-63.45,21.37,03/22/2020,00:01:01.200,0,0,0,0,0,0,0,9999,9.823,
01/01/2000,00:01:02.40,-75.68,-6.84,-975.59,2.82,-1.49,0.26,13.35,-24.15,-63.45,21.37,03/22/2020,00:01:01.300,0,0,0,0,0,0,0,9999,9.824,
01/01/2000,00:01:02.50,-79.59,-23.93,-993.16,1.62,-1.05,0.91,12.90,-25.50,-61.50,21.37,03/22/2020,00:01:01.400,0,0,0,0,0,0,0,9999,9.824,
01/01/2000,00:01:02.60,-71.78,-32.71,-989.75,0.69,-0.80,2.52,13.80,-23.85,-64.20,21.66,03/22/2020,00:01:01.500,0,0,0,0,0,0,0,9999,9.824,
01/01/2000,00:01:02.70,-71.78,-19.04,-986.82,2.29,-3.21,0.44,9.45,-26.70,-60.30,21.56,03/22/2020,00:01:01.600,0,0,0,0,0,0,0,9999,9.825,
01/01/2000,00:01:02.80,-79.59,-8.79,-986.33,-1.37,2.96,-0.31,12.30,-25.65,-60.60,21.18,03/22/2020,00:01:01.700,0,0,0,0,0,0,0,9999,9.825,
01/01/2000,00:01:02.90,-71.29,-16.11,-975.59,-2.17,1.02,-0.95,12.60,-23.40,-62.70,21.32,03/22/2020,00:01:01.800,0,0,0,0,0,0,0,9999,9.825,
01/01/2000,00:01:03.00,-69.34,-9.28,-972.66,-2.16,-0.19,-0.57,12.30,-24.90,-64.80,21.51,03/22/2020,00:01:01.900,0,0,0,0,0,0,0,9999,9.822,
01/01/2000,00:01:03.11,-74.71,-9.77,-958.50,-0.73,1.41,-1.28,13.50,-23.25,-62.85,21.32,03/22/2020,00:01:02.000,0,0,0,0,0,0,0,9999,9.826,
01/01/2000,00:01:03.21,-72.27,-11.72,-973.14,-1.39,3.44,-0.02,10.20,-25.35,-60.90,21.56,03/22/2020,00:01:02.100,0,0,0,0,0,0,0,9999,9.826,
01/01/2000,00:01:03.31,-61.52,-15.63,-976.56,-2.10,2.63,-1.71,12.45,-25.05,-60.75,21.56,03/22/2020,00:01:02.200,0,0,0,0,0,0,0,9999,9.826,
01/01/2000,00:01:03.41,-72.27,-7.81,-961.91,0.58,-0.69,0.52,12.90,-24.30,-64.05,21.51,03/22/2020,00:01:02.300,0,0,0,0,0,0,0,9999,9.827,
01/01/2000,00:01:03.51,-55.18,-12.21,-954.59,-0.37,2.79,-0.84,12.15,-25.50,-64.05,21.46,03/22/2020,00:01:02.400,0,0,0,0,0,0,0,9999,9.827,
01/01/2000,00:01:03.60,-72.75,-16.11,-1003.42,1.33,-0.48,1.60,10.80,-24.15,-60.90,21.37,03/22/2020,00:01:02.500,0,0,0,0,0,0,0,9999,9.827,
01/01/2000,00:01:03.70,-71.29,-10.25,-965.82,2.70,-2.09,2.97,14.10,-23.85,-63.15,21.46,03/22/2020,00:01:02.600,0,0,0,0,0,0,0,9999,9.826,
01/01/2000,00:01:03.80,-59.08,-6.84,-998.54,1.79,-0.29,-1.43,12.0,-24.90,-59.55,21.56,03/22/2020,00:01:02.700,0,0,0,0,0,0,0,9999,9.828,
01/01/2000,00:01:03.90,-79.59,-2.93,-991.70,0.44,2.79,-0.60,12.90,-25.80,-63.60,21.32,03/22/2020,00:01:02.800,0,0,0,0,0,0,0,9999,9.828,
01/01/2000,00:01:04.00,-76.66,-21.97,-984.38,1.79,-1.05,0.15,12.0,-25.35,-60.60,21.37,03/22/2020,00:01:02.900,0,0,0,0,0,0,0,9999,9.828,
01/01/2000,00:01:04.10,-52.73,-10.25,-990.72,1.21,-1.70,-1.12,12.0,-24.15,-63.45,21.51,03/22/2020,00:01:03.000,0,0,0,0,0,0,0,9999,9.829,
01/01/2000,00:01:04.20,-92.77,-8.30,-998.54,-2.15,2.67,-2.78,12.90,-24.0,-63.30,21.37,03/22/2020,00:01:03.100,0,0,0,0,0,0,0,9999,9.829,
01/01/2000,00:01:04.30,-74.71,-11.72,-996.58,0.26,3.02,-3.29,11.25,-26.70,-63.15,21.37,03/22/2020,00:01:03.200,0,0,0,0,0,0,0,9999,9.829,
01/01/2000,00:01:04.40,-79.10,-23.93,-997.07,0.63,-1.46,2.74,12.15,-24.75,-61.80,21.22,03/22/2020,00:01:03.300,0,0,0,0,0,0,0,9999,9.829,
01/01/2000,00:01:04.50,-82.52,-19.53,-971.19,1.50,3.67,-2.56,11.40,-24.30,-60.75,21.56,03/22/2020,00:01:03.400,0,0,0,0,0,0,0,9999,9.830,
01/01/2000,00:01:04.60,-75.68,-19.53,-1005.86,-0.31,0.95,-1.82,12.60,-24.90,-62.10,21.37,03/22/2020,00:01:03.500,0,0,0,0,0,0,0,9999,9.830,
01/01/2000,00:01:04.70,-64.45,-17.09,-994.63,1.18,0.89,0.52,10.80,-24.90,-60.30,21.70,03/22/2020,00:01:03.600,0,0,0,0,0,0,0,9999,9.830,
01/01/2000,00:01:04.80,-86.91,-2.44,-961.91,-0.09,1.63,-2.62,13.80,-24.15,-63.45,21.32,03/22/2020,00:01:03.700,0,0,0,0,0,0,0,9999,9.831,
01/01/2000,00:01:04.90,-78.61,0.49,-1020.51,-1.03,-1.95,0.38,13.35,-23.40,-62.40,21.66,03/22/2020,00:01:03.800,0,0,0,0,0,0,0,9999,9.831,
01/01/2000,00:01:05.00,-84.47,4.39,-978.03,0.14,-2.98,0.52,12.15,-26.55,-60.75,21.56,03/22/2020,00:01:03.900,0,0,0,0,0,0,0,9999,9.828,
01/01/2000,00:01:05.11,-82.03,-16.11,-1006.35,-1.74,-0.46,0.86,12.90,-24.0,-64.35,21.46,03/22/2020,00:01:04.000,0,0,0,0,0,0,0,9999,9.831,
01/01/2000,00:01:05.21,-77.15,0.0,-979.00,-0.92,-0.57,-0.08,14.25,-24.75,-64.05,21.46,03/22/2020,00:01:04.100,0,0,0,0,0,0,0,9999,9.832,
01/01/2000,00:01:05.31,-83.98,-9.28,-973.14,1.80,0.01,1.11,13.80,-25.35,-63.45,21.56,03/22/2020,00:01:04.200,0,0,0,0,0,0,0,9999,9.832,
01/01/2000,00:01:05.41,-81.05,-5.37,-986.33,1.01,-4.68,-0.04,12.0,-24.15,-62.40,21.46,03/22/2020,00:01:04.300,0,0,0,0,0,0,0,9999,9.832,
01/01/2000,00:01:05.51,-69.82,-12.21,-979.00,1.64,-1.85,0.02,11.25,-24.60,-63.45,21.51,03/22/2020,00:01:04.400,0,0,0,0,0,0,0,9999,9.832,
01/01/2000,00:01:05.61,-82.03,-13.18,-972.66,0.21,-0.24,-0.47,13.05,-26.70,-61.65,21.66,03/22/2020,00:01:04.500,0,0,0,0,0,0,0,9999,9.833,
01/01/2000,00:01:05.71,-79.10,-20.02,-998.05,-1.02,3.60,-2.44,12.45,-25.50,-61.80,21.56,03/22/2020,00:01:04.600,0,0,0,0,0,0,0,9999,9.833,
01/01/2000,00:01:05.81,-72.75,-3.42,-969.73,1.01,0.37,0.67,11.10,-25.80,-61.20,21.56,03/22/2020,00:01:04.700,0,0,0,0,0,0,0,9999,9.833,
01/01/2000,00:01:05.91,-77.64,-15.63,-1011.23,1.02,-0.63,3.18,13.35,-24.60,-63.45,21.37,03/22/2020,00:01:04.800,0,0,0,0,0,0,0,9999,9.833,
01/01/2000,00:01:06.01,-89.36,-6.84,-967.29,-1.54,2.89,-2.0,12.60,-23.85,-63.45,21.56,03/22/2020,00:01:04.900,0,0,0,0,0,0,0,9999,9.834,
01/01/2000,00:01:06.10,-72.27,-8.79,-979.98,1.39,-0.63,1.36,13.05,-23.85,-63.45,21.37,03/22/2020,00:01:05.000,0,0,0,0,0,0,0,9999,9.834,
01/01/2000,00:01:06.20,-81.05,-5.37,-976.56,3.14,-1.34,1.58,10.65,-24.30,-61.20,21.70,03/22/2020,00:01:05.100,0,0,0,0,0,0,0,9999,9.834,
01/01/2000,00:01:06.30,-74.71,-23.44,-959.96,-1.29,-0.54,-1.66,12.30,-25.35,-61.65,21.66,03/22/2020,00:01:05.200,0,0,0,0,0,0,0,9999,9.835,
01/01/2000,00:01:06.40,-69.34,-4.39,-982.91,-0.06,4.04,-1.86,13.50,-24.75,-63.60,21.46,03/22/2020,00:01:05.300,0,0,0,0,0,0,0,9999,9.835,
01/01/2000,00:01:06.50,-83.98,-2.93,-977.05,0.41,0.07,1.11,13.05,-24.15,-63.45,21.66,03/22/2020,00:01:05.400,0,0,0,0,0,0,0,9999,9.835,
01/01/2000,00:01:06.60,-78.13,-12.70,-992.19,-0.47,1.13,-4.41,11.40,-25.05,-61.50,21.32,03/22/2020,00:01:05.500,0,0,0,0,0,0,0,9999,9.835,
01/01/2000,00:01:06.70,-68.85,-15.63,-991.70,-2.47,2.23,-3.26,12.60,-24.90,-64.20,21.56,03/22/2020,00:01:05.600,0,0,0,0,0,0,0,9999,9.836,
01/01/2000,00:01:06.80,-78.61,-17.09,-969.24,-0.10,1.96,-0.06,11.40,-25.50,-61.50,21.85,03/22/2020,00:01:05.700,0,0,0,0,0,0,0,9999,9.836,
01/01/2000,00:01:06.90,-79.10,-9.28,-999.02,4.45,0.66,1.45,11.40,-26.25,-59.70,21.66,03/22/2020,00:01:05.800,0,0,0,0,0,0,0,9999,9.836,
01/01/2000,00:01:07.00,-82.03,-7.81,-967.77,2.53,-1.21,0.95,12.30,-24.90,-63.45,21.22,03/22/2020,00:01:05.900,0,0,0,0,0,0,0,9999,9.832,
01/01/2000,00:01:07.11,-79.10,-2.44,-993.65,1.76,-0.92,0.25,12.15,-24.30,-63.60,21.56,03/22/2020,00:01:06.000,0,0,0,0,0,0,0,9999,9.837,
01/01/2000,00:01:07.21,-74.22,-20.51,-973.14,-1.69,1.99,-3.97,13.50,-25.05,-62.25,21.37,03/22/2020,00:01:06.100,0,0,0,0,0,0,0,9999,9.837,
01/01/2000,00:01:07.31,-72.27,-22.46,-990.23,-0.69,2.21,-1.65,9.45,-27.45,-60.90,21.66,03/22/2020,00:01:06.200,0,0,0,0,0,0,0,9999,9.837,
01/01/2000,00:01:07.41,-85.94,3.42,-982.91,3.34,-2.82,0.60,9.0,-24.90,-60.60,21.56,03/22/2020,00:01:06.300,0,0,0,0,0,0,0,9999,9.837,
01/01/2000,00:01:07.51,-79.59,-11.23,-981.93,2.56,-1.38,0.70,12.30,-24.15,-64.20,21.46,03/22/2020,00:01:06.400,0,0,0,0,0,0,0,9999,9.838,
01/01/2000,00:01:07.61,-79.10,-7.81,-996.09,-0.33,0.71,-1.79,12.60,-23.40,-63.15,21.56,03/22/2020,00:01:06.500,0,0,0,0,0,0,0,9999,9.838,
01/01/2000,00:01:07.71,-78.13,-6.84,-985.35,-0.63,2.55,-2.14,11.25,-26.70,-62.70,21.66,03/22/2020,00:01:06.600,0,0,0,0,0,0,0,9999,9.838,
01/01/2000,00:01:07.81,-84.96,-15.14,-988.77,-1.69,1.71,-0.08,12.45,-24.75,-64.05,21.75,03/22/2020,00:01:06.700,0,0,0,0,0,0,0,9999,9.838,
01/01/2000,00:01:07.90,-75.68,-10.25,-974.12,0.79,-0.87,-0.69,10.50,-25.35,-59.85,21.66,03/22/2020,00:01:06.800,0,0,0,0,0,0,0,9999,9.839,
01/01/2000,00:01:08.00,-86.43,-7.32,-984.86,-1.68,1.08,-0.50,10.35,-25.50,-61.80,21.37,03/22/2020,00:01:06.900,0,0,0,0,0,0,0,9999,9.839,
01/01/2000,00:01:08.10,-83.98,-13.18,-984.86,-2.03,1.97,-2.95,12.45,-24.0,-64.05,21.66,03/22/2020,00:01:07.000,0,0,0,0,0,0,0,9999,9.839,
01/01/2000,00:01:08.20,-76.17,-15.14,-979.49,2.85,-1.56,1.73,12.60,-23.85,-63.75,21.66,03/22/2020,00:01:07.100,0,0,0,0,0,0,0,9999,9.839,
01/01/2000,00:01:08.30,-79.59,-7.32,-1006.84,-2.40,1.71,0.13,13.35,-25.35,-63.75,21.66,03/22/2020,00:01:07.200,0,0,0,0,0,0,0,9999,9.840,
01/01/2000,00:01:08.40,-66.41,-4.88,-981.45,0.25,0.75,0.18,10.65,-24.75,-61.20,21.85,03/22/2020,00:01:07.300,0,0,0,0,0,0,0,9999,9.840,
01/01/2000,00:01:08.50,-64.45,-13.67,-980.96,1.44,0.98,1.24,12.15,-25.80,-60.75,21.46,03/22/2020,00:01:07.400,0,0,0,0,0,0,0,9999,9.840,
01/01/2000,00:01:08.60,-78.13,-18.55,-980.47,-2.73,2.45,-3.06,11.70,-25.50,-60.75,21.56,03/22/2020,00:01:07.500,0,0,0,0,0,0,0,9999,9.840,
01/01/2000,00:01:08.70,-79.10,-16.60,-981.45,-3.07,-0.02,-2.64,13.50,-25.05,-63.60,21.85,03/22/2020,00:01:07.600,0,0,0,0,0,0,0,9999,9.841,
01/01/2000,00:01:08.80,-78.13,-16.11,-978.52,0.52,0.15,-1.07,13.20,-25.50,-61.50,21.51,03/22/2020,00:01:07.700,0,0,0,0,0,0,0,9999,9.841,
01/01/2000,00:01:08.90,-87.40,-0.98,-981.93,-0.41,1.27,-1.08,13.80,-24.90,-63.15,21.66,03/22/2020,00:01:07.800,0,0,0,0,0,0,0,9999,9.841,
01/01/2000,00:01:09.00,-78.13,-22.46,-974.61,2.23,-1.11,1.46,13.05,-22.65,-63.45,21.37,03/22/2020,00:01:07.900,0,0,0,0,0,0,0,9999,9.838,
01/01/2000,00:01:09.11,-83.98,-16.60,-974.12,0.24,1.84,-3.56,12.0,-24.15,-64.50,21.75,03/22/2020,00:01:08.000,0,0,0,0,0,0,0,9999,9.840,
01/01/2000,00:01:09.21,-62.50,-15.14,-1014.16,3.12,-0.66,1.90,11.25,-26.70,-62.40,21.70,03/22/2020,00:01:08.100,0,0,0,0,0,0,0,9999,9.840,
01/01/2000,00:01:09.31,-74.71,-7.32,-940.92,2.73,-1.70,0.49,13.35,-23.85,-63.15,21.75,03/22/2020,00:01:08.200,0,0,0,0,0,0,0,9999,9.841,
01/01/2000,00:01:09.41,-71.78,-17.58,-973.63,-2.67,1.62,-3.66,13.80,-24.60,-63.45,21.66,03/22/2020,00:01:08.300,0,0,0,0,0,0,0,9999,9.841,
01/01/2000,00:01:09.51,-60.06,5.37,-993.65,2.02,0.66,1.90,10.35,-25.50,-60.75,21.66,03/22/2020,00:01:08.400,0,0,0,0,0,0,0,9999,9.841,
01/01/2000,00:01:09.61,-78.61,-13.67,-968.75,2.57,-1.09,1.50,12.90,-23.70,-63.30,21.70,03/22/2020,00:01:08.500,0,0,0,0,0,0,0,9999,9.841,
01/01/2000,00:01:09.71,-74.71,-15.14,-987.79,2.66,0.18,2.97,11.10,-25.05,-60.75,21.75,03/22/2020,00:01:08.600,0,0,0,0,0,0,0,9999,9.841,
01/01/2000,00:01:09.81,-79.59,-24.90,-976.56,-1.15,4.01,-0.15,11.10,-26.25,-61.50,21.70,03/22/2020,00:01:08.700,0,0,0,0,0,0,0,9999,9.842,
01/01/2000,00:01:09.91,-85.45,-11.72,-994.14,2.23,-0.67,2.02,11.70,-26.55,-60.75,21.70,03/22/2020,00:01:08.800,0,0,0,0,0,0,0,9999,9.842,
01/01/2000,00:01:10.01,-64.94,-12.21,-950.68,2.48,-1.07,3.63,14.10,-25.65,-63.75,21.70,03/22/2020,00:01:08.900,0,0,0,0,0,0,0,9999,9.842,
01/01/2000,00:01:10.11,-75.68,-18.55,-967.77,-1.43,1.47,-0.77,12.45,-24.75,-63.60,21.75,03/22/2020,00:01:09.000,0,0,0,0,0,0,0,9999,9.842,
01/01/2000,00:01:10.21,-73.24,-19.04,-973.14,0.95,-0.94,0.92,13.20,-24.75,-63.60,21.75,03/22/2020,00:01:09.100,0,0,0,0,0,0,0,9999,9.843,
01/01/2000,00:01:10.31,-71.78,-22.95,-985.35,-2.06,1.11,-2.08,10.35,-25.80,-61.80,21.56,03/22/2020,00:01:09.200,0,0,0,0,0,0,0,9999,9.843,
01/01/2000,00:01:10.41,-80.08,-14.65,-976.07,3.50,-1.27,3.06,11.55,-24.60,-62.70,21.75,03/22/2020,00:01:09.300,0,0,0,0,0,0,0,9999,9.845,
01/01/2000,00:01:10.51,-60.06,-12.21,-995.12,2.95,-0.47,0.83,12.60,-24.15,-63.15,21.90,03/22/2020,00:01:09.400,0,0,0,0,0,0,0,9999,9.845,
01/01/2000,00:01:10.61,-83.98,-7.32,-967.77,1.37,0.30,2.08,11.70,-25.80,-62.25,21.70,03/22/2020,00:01:09.500,0,0,0,0,0,0,0,9999,9.845,
01/01/2000,00:01:10.71,-77.15,-16.60,-983.40,2.72,-1.60,0.40,13.05,-24.90,-62.70,21.56,03/22/2020,00:01:09.600,0,0,0,0,0,0,0,9999,9.845,
01/01/2000,00:01:10.81,-57.62,5.86,-989.75,-1.39,2.75,-2.12,13.20,-25.05,-62.85,21.66,03/22/2020,00:01:09.700,0,0,0,0,0,0,0,9999,9.845,
01/01/2000,00:01:10.91,-66.89,-1.46,-966.31,-1.64,0.18,-0.29,10.65,-24.75,-60.45,21.85,03/22/2020,00:01:09.800,0,0,0,0,0,0,0,9999,9.846,
01/01/2000,00:01:11.01,-66.41,-23.44,-1041.50,0.47,3.19,-1.70,10.65,-25.50,-61.20,21.75,03/22/2020,00:01:09.900,0,0,0,0,0,0,0,9999,9.846,
01/01/2000,00:01:11.11,-81.54,-5.86,-934.57,-3.05,1.50,-0.89,13.35,-23.40,-63.15,21.70,03/22/2020,00:01:10.000,0,0,0,0,0,0,0,9999,9.846,
01/01/2000,00:01:11.21,-71.78,-9.77,-1006.84,3.27,-1.79,2.62,13.05,-22.65,-63.75,21.75,03/22/2020,00:01:10.100,0,0,0,0,0,0,0,9999,9.846,
01/01/2000,00:01:11.31,-81.05,-17.09,-979.98,-0.53,2.82,-2.85,12.30,-23.85,-61.65,21.66,03/22/2020,00:01:10.200,0,0,0,0,0,0,0,9999,9.847,
01/01/2000,00:01:11.41,-69.82,-22.95,-978.03,-0.60,2.08,-0.98,12.45,-25.80,-61.50,21.85,03/22/2020,00:01:10.300,0,0,0,0,0,0,0,9999,9.847,
01/01/2000,00:01:11.51,-73.73,-14.16,-991.21,-0.16,-0.39,1.31,12.15,-25.80,-61.50,21.75,03/22/2020,00:01:10.400,0,0,0,0,0,0,0,9999,9.847,
01/01/2000,00:01:11.61,-87.89,-14.16,-971.68,-0.75,0.73,-2.31,11.70,-25.50,-60.75,21.66,03/22/2020,00:01:10.500,0,0,0,0,0,0,0,9999,9.847,
01/01/2000,00:01:11.70,-72.27,-19.53,-1001.46,3.31,-1.50,2.43,14.25,-25.05,-63.60,21.70,03/22/2020,00:01:10.600,0,0,0,0,0,0,0,9999,9.847,
01/01/2000,00:01:11.80,-79.10,-16.11,-977.05,0.74,-0.73,0.56,12.15,-26.55,-62.25,21.75,03/22/2020,00:01:10.700,0,0,0,0,0,0,0,9999,9.848,
01/01/2000,00:01:11.90,-86.91,-17.58,-959.47,2.47,-2.07,1.70,13.95,-26.25,-63.30,21.70,03/22/2020,00:01:10.800,0,0,0,0,0,0,0,9999,9.848,
01/01/2000,00:01:12.00,-75.68,4.39,-1002.93,-1.87,2.85,-0.82,11.55,-24.60,-63.45,21.66,03/22/2020,00:01:10.900,0,0,0,0,0,0,0,9999,9.848,
01/01/2000,00:01:12.10,-70.31,-2.44,-968.75,-0.60,1.47,-1.91,9.75,-24.90,-61.65,21.70,03/22/2020,00:01:11.000,0,0,0,0,0,0,0,9999,9.848,
01/01/2000,00:01:12.20,-83.50,-4.39,-960.94,2.30,-1.09,-0.56,10.65,-25.50,-61.50,21.51,03/22/2020,00:01:11.100,0,0,0,0,0,0,0,9999,9.849,
01/01/2000,00:01:12.30,-67.87,-8.30,-998.05,3.02,0.51,1.88,12.60,-23.85,-64.50,21.70,03/22/2020,00:01:11.200,0,0,0,0,0,0,0,9999,9.849,
01/01/2000,00:01:12.40,-72.27,-8.79,-958.01,-2.17,3.63,-2.42,14.10,-24.60,-63.15,21.85,03/22/2020,00:01:11.300,0,0,0,0,0,0,0,9999,9.849,
01/01/2000,00:01:12.50,-69.34,-18.07,-997.07,1.78,-0.81,1.40,10.35,-25.80,-62.25,21.99,03/22/2020,00:01:11.400,0,0,0,0,0,0,0,9999,9.849,
01/01/2000,00:01:12.60,-83.50,-12.21,-983.40,1.63,-2.07,-0.89,11.70,-23.70,-63.60,21.90,03/22/2020,00:01:11.500,0,0,0,0,0,0,0,9999,9.849,
01/01/2000,00:01:12.70,-74.71,-23.93,-976.56,3.76,-0.12,2.54,11.40,-25.05,-60.75,21.85,03/22/2020,00:01:11.600,0,0,0,0,0,0,0,9999,9.850,
01/01/2000,00:01:12.80,-71.78,-9.28,-984.86,-0.67,-0.29,-4.77,12.30,-26.10,-60.30,21.56,03/22/2020,00:01:11.700,0,0,0,0,0,0,0,9999,9.850,
01/01/2000,00:01:12.90,-96.68,-31.25,-993.16,1.26,1.36,0.95,10.35,-24.75,-60.75,21.85,03/22/2020,00:01:11.800,0,0,0,0,0,0,0,9999,9.850,
01/01/2000,00:01:13.00,-72.75,-10.74,-993.65,1.79,-0.93,1.75,13.05,-24.15,-64.50,21.90,03/22/2020,00:01:11.900,0,0,0,0,0,0,0,9999,9.848,
01/01/2000,00:01:13.11,-69.82,2.44,-1000.98,0.87,1.69,-0.46,10.35,-23.70,-63.60,21.85,03/22/2020,00:01:12.000,0,0,0,0,0,0,0,9999,9.851,
01/01/2000,00:01:13.21,-85.94,-15.14,-982.42,-3.05,3.50,-3.88,9.0,-26.10,-59.85,21.66,03/22/2020,00:01:12.100,0,0,0,0,0,0,0,9999,9.851,
01/01/2000,00:01:13.31,-70.31,-20.51,-1004.88,3.18,-2.52,0.39,10.80,-24.90,-61.65,21.99,03/22/2020,00:01:12.200,0,0,0,0,0,0,0,9999,9.851,
01/01/2000,00:01:13.41,-94.73,-8.79,-980.96,3.54,-1.82,-0.90,12.60,-24.90,-63.75,21.90,03/22/2020,00:01:12.300,0,0,0,0,0,0,0,9999,9.851,
01/01/2000,00:01:13.50,-78.61,-7.32,-980.96,-0.56,0.77,-1.34,13.50,-24.0,-63.60,22.04,03/22/2020,00:01:12.400,0,0,0,0,0,0,0,9999,9.851,
01/01/2000,00:01:13.60,-74.22,-28.81,-989.26,-1.18,1.92,0.74,11.70,-25.05,-62.25,21.99,03/22/2020,00:01:12.500,0,0,0,0,0,0,0,9999,9.852,
01/01/2000,00:01:13.70,-83.50,-7.81,-992.19,-1.44,2.40,-3.11,12.60,-23.40,-63.75,21.70,03/22/2020,00:01:12.600,0,0,0,0,0,0,0,9999,9.852,
01/01/2000,00:01:13.80,-72.27,0.98,-1007.32,0.92,-1.81,2.56,13.20,-25.50,-63.30,21.90,03/22/2020,00:01:12.700,0,0,0,0,0,0,0,9999,9.852,
01/01/2000,00:01:13.90,-61.52,-12.70,-967.77,-0.34,2.37,0.17,11.10,-25.05,-61.80,21.70,03/22/2020,00:01:12.800,0,0,0,0,0,0,0,9999,9.852,
01/01/2000,00:01:14.00,-79.10,-7.32,-989.75,1.60,-1.61,1.45,11.10,-27.0,-62.25,21.66,03/22/2020,00:01:12.900,0,0,0,0,0,0,0,9999,9.852,
01/01/2000,00:01:14.10,-78.61,-15.14,-991.21,-0.18,-0.05,1.75,12.45,-25.05,-63.60,21.75,03/22/2020,00:01:13.000,0,0,0,0,0,0,0,9999,9.853,
01/01/2000,00:01:14.20,-80.08,-3.91,-1005.37,-1.75,1.68,-0.44,13.05,-24.15,-63.15,21.99,03/22/2020,00:01:13.100,0,0,0,0,0,0,0,9999,9.853,
01/01/2000,00:01:14.30,-73.24,-5.86,-995.61,-1.88,2.61,-3.73,12.60,-23.85,-62.70,21.70,03/22/2020,00:01:13.200,0,0,0,0,0,0,0,9999,9.853,
01/01/2000,00:01:14.40,-82.03,-16.60,-1007.81,-0.15,0.61,-1.02,10.50,-25.65,-59.55,21.85,03/22/2020,00:01:13.300,0,0,0,0,0,0,0,9999,9.853,
01/01/2000,00:01:14.50,-79.10,7.32,-948.24,1.16,0.93,-0.93,10.35,-25.05,-62.55,21.85,03/22/2020,00:01:13.400,0,0,0,0,0,0,0,9999,9.853,
01/01/2000,00:01:14.60,-76.66,-27.83,-995.61,3.62,-1.73,2.13,12.15,-22.95,-63.30,21.85,03/22/2020,00:01:13.500,0,0,0,0,0,0,0,9999,9.854,
01/01/2000,00:01:14.70,-63.48,-8.79,-983.40,1.82,-3.44,1.08,13.50,-23.70,-62.85,21.56,03/22/2020,00:01:13.600,0,0,0,0,0,0,0,9999,9.854,
01/01/2000,00:01:14.80,-79.10,-18.55,-950.20,-2.30,1.19,-3.64,12.90,-23.25,-64.05,21.99,03/22/2020,00:01:13.700,0,0,0,0,0,0,0,9999,9.854,
01/01/2000,00:01:14.90,-66.41,-4.88,-1008.79,0.82,-1.01,-0.98,12.60,-21.90,-62.40,21.90,03/22/2020,00:01:13.800,0,0,0,0,0,0,0,9999,9.854,
01/01/2000,00:01:15.00,-65.92,-0.49,-959.96,1.57,0.15,-1.24,12.0,-25.65,-62.10,21.90,03/22/2020,00:01:13.900,0,0,0,0,0,0,0,9999,9.852,
01/01/2000,00:01:15.11,-78.61,-4.88,-947.75,2.57,-2.27,2.24,12.90,-24.0,-63.30,21.90,03/22/2020,00:01:14.000,0,0,0,0,0,0,0,9999,9.855,
01/01/2000,00:01:15.21,-62.99,-14.16,-1030.76,0.98,-2.15,1.18,13.20,-24.0,-64.05,21.99,03/22/2020,00:01:14.100,0,0,0,0,0,0,0,9999,9.855,
01/01/2000,00:01:15.31,-64.94,16.11,-1040.53,-2.35,3.05,-0.99,12.45,-24.75,-62.85,21.56,03/22/2020,00:01:14.200,0,0,0,0,0,0,0,9999,9.855,
01/01/2000,00:01:15.41,-80.08,-27.83,-950.20,2.67,-3.44,1.84,11.40,-22.95,-63.60,21.75,03/22/2020,00:01:14.300,0,0,0,0,0,0,0,9999,9.855,
01/01/2000,00:01:15.51,-71.29,-9.77,-1014.16,2.47,1.36,1.39,10.65,-25.50,-60.75,21.75,03/22/2020,00:01:14.400,0,0,0,0,0,0,0,9999,9.855,
01/01/2000,00:01:15.61,-79.10,-16.60,-919.92,0.63,-1.68,-0.31,11.55,-25.65,-60.90,21.85,03/22/2020,00:01:14.500,0,0,0,0,0,0,0,9999,9.856,
01/01/2000,00:01:15.71,-82.52,-31.25,-1016.60,2.27,-1.48,1.63,13.50,-25.05,-64.05,22.04,03/22/2020,00:01:14.600,0,0,0,0,0,0,0,9999,9.856,
01/01/2000,00:01:15.81,-74.22,-12.70,-999.02,0.79,-1.18,-0.79,10.20,-26.10,-61.65,22.04,03/22/2020,00:01:14.700,0,0,0,0,0,0,0,9999,9.856,
01/01/2000,00:01:15.91,-57.13,-5.37,-942.87,2.31,-2.18,1.89,13.20,-23.25,-62.25,21.66,03/22/2020,00:01:14.800,0,0,0,0,0,0,0,9999,9.856,
01/01/2000,00:01:16.01,-59.57,-22.95,-1025.88,0.53,-1.24,1.05,12.60,-24.90,-63.75,22.04,03/22/2020,00:01:14.900,0,0,0,0,0,0,0,9999,9.856,
01/01/2000,00:01:16.11,-65.43,-3.42,-994.63,1.89,-0.75,3.64,11.40,-25.80,-61.20,21.66,03/22/2020,00:01:15.000,0,0,0,0,0,0,0,9999,9.857,
01/01/2000,00:01:16.20,-70.80,-28.81,-992.19,-1.86,2.18,-0.62,11.70,-25.50,-61.50,21.85,03/22/2020,00:01:15.100,0,0,0,0,0,0,0,9999,9.857,
01/01/2000,00:01:16.30,-67.38,-4.39,-1002.44,-1.18,1.02,-1.97,13.80,-24.15,-63.15,21.99,03/22/2020,00:01:15.200,0,0,0,0,0,0,0,9999,9.857,
01/01/2000,00:01:16.40,-81.05,-11.23,-989.26,2.21,-1.35,2.44,11.55,-24.15,-63.15,22.09,03/22/2020,00:01:15.300,0,0,0,0,0,0,0,9999,9.857,
01/01/2000,00:01:16.50,-87.40,-13.67,-988.28,-2.53,2.68,-1.53,13.20,-24.75,-63.30,21.75,03/22/2020,00:01:15.400,0,0,0,0,0,0,0,9999,9.857,
01/01/2000,00:01:16.60,-69.82,-10.74,-977.05,2.58,0.01,-0.82,12.15,-24.75,-61.80,21.99,03/22/2020,00:01:15.500,0,0,0,0,0,0,0,9999,9.858,
01/01/2000,00:01:16.70,-78.13,-21.00,-973.63,0.17,2.77,-1.20,12.0,-25.65,-59.85,21.70,03/22/2020,00:01:15.600,0,0,0,0,0,0,0,9999,9.858,
01/01/2000,00:01:16.80,-69.82,-12.21,-991.21,0.79,-2.78,0.18,12.30,-25.65,-61.35,21.90,03/22/2020,00:01:15.700,0,0,0,0,0,0,0,9999,9.858,
01/01/2000,00:01:16.90,-79.59,-4.39,-961.43,3.75,-2.67,1.56,12.45,-25.05,-62.85,21.99,03/22/2020,00:01:15.800,0,0,0,0,0,0,0,9999,9.858,
01/01/2000,00:01:17.00,-79.10,-6.84,-981.93,2.93,-1.74,4.05,12.45,-26.25,-60.75,21.70,03/22/2020,00:01:15.900,0,0,0,0,0,0,0,9999,9.858,
01/01/2000,00:01:17.10,-81.05,-12.70,-974.12,-0.74,-0.07,-2.91,13.50,-23.70,-62.55,22.04,03/22/2020,00:01:16.000,0,0,0,0,0,0,0,9999,9.859,
01/01/2000,00:01:17.20,-80.08,-11.72,-961.91,1.81,-0.70,0.05,13.20,-24.0,-62.25,21.56,03/22/2020,00:01:16.100,0,0,0,0,0,0,0,9999,9.859,
01/01/2000,00:01:17.30,-72.27,-11.72,-1009.28,2.79,-0.89,2.51,12.45,-25.80,-59.70,21.75,03/22/2020,00:01:16.200,0,0,0,0,0,0,0,9999,9.859,
01/01/2000,00:01:17.40,-79.59,-15.63,-982.91,-1.28,2.89,-2.44,11.25,-26.10,-60.60,22.04,03/22/2020,00:01:16.300,0,0,0,0,0,0,0,9999,9.859,
01/01/2000,00:01:17.50,-60.55,-13.18,-993.65,-0.98,0.40,-2.16,13.05,-25.35,-63.75,22.04,03/22/2020,00:01:16.400,0,0,0,0,0,0,0,9999,9.859,
01/01/2000,00:01:17.60,-69.82,-2.93,-996.58,0.31,0.68,-1.15,13.20,-23.25,-62.85,21.99,03/22/2020,00:01:16.500,0,0,0,0,0,0,0,9999,9.860,
01/01/2000,00:01:17.70,-75.20,-15.63,-970.70,0.58,2.60,0.99,10.80,-23.40,-60.30,21.99,03/22/2020,00:01:16.600,0,0,0,0,0,0,0,9999,9.860,
01/01/2000,00:01:17.80,-58.59,-2.44,-998.54,-1.21,1.99,-1.88,13.50,-24.30,-63.60,21.75,03/22/2020,00:01:16.700,0,0,0,0,0,0,0,9999,9.860,
01/01/2000,00:01:17.90,-77.15,-2.93,-980.96,4.10,0.81,1.70,10.80,-26.40,-59.55,21.99,03/22/2020,00:01:16.800,0,0,0,0,0,0,0,9999,9.860,
01/01/2000,00:01:18.00,-82.52,0.49,-999.51,0.34,1.62,-2.40,12.15,-24.75,-61.50,21.56,03/22/2020,00:01:16.900,0,0,0,0,0,0,0,9999,9.858,
01/01/2000,00:01:18.11,-62.50,-14.65,-983.89,-1.72,0.71,-2.83,13.35,-24.60,-63.15,21.56,03/22/2020,00:01:17.000,0,0,0,0,0,0,0,9999,9.860,
01/01/2000,00:01:18.20,-71.29,-14.65,-984.86,-1.18,1.14,0.23,13.50,-24.30,-63.30,22.18,03/22/2020,00:01:17.100,0,0,0,0,0,0,0,9999,9.861,
01/01/2000,00:01:18.30,-81.05,-12.21,-991.21,1.04,-0.82,1.34,11.40,-24.30,-63.60,22.23,03/22/2020,00:01:17.200,0,0,0,0,0,0,0,9999,9.861,
01/01/2000,00:01:18.40,-71.29,-3.91,-980.47,1.12,-2.05,3.11,11.10,-25.50,-61.50,21.85,03/22/2020,00:01:17.300,0,0,0,0,0,0,0,9999,9.861,
01/01/2000,00:01:18.50,-64.45,-11.23,-966.80,1.48,-0.33,1.09,9.90,-24.0,-60.15,22.09,03/22/2020,00:01:17.400,0,0,0,0,0,0,0,9999,9.861,
01/01/2000,00:01:18.60,-64.94,-19.04,-980.47,-0.31,1.96,-2.72,11.40,-25.05,-61.80,21.90,03/22/2020,00:01:17.500,0,0,0,0,0,0,0,9999,9.861,
01/01/2000,00:01:18.70,-77.64,-8.30,-989.26,-0.03,0.49,-1.25,11.70,-24.75,-63.30,21.75,03/22/2020,00:01:17.600,0,0,0,0,0,0,0,9999,9.862,
01/01/2000,00:01:18.80,-79.10,-12.21,-967.29,-2.41,2.16,-0.01,11.25,-24.60,-61.35,22.04,03/22/2020,00:01:17.700,0,0,0,0,0,0,0,9999,9.862,
01/01/2000,00:01:18.90,-71.29,-4.88,-984.38,2.89,-1.01,0.63,12.30,-23.40,-63.15,22.04,03/22/2020,00:01:17.800,0,0,0,0,0,0,0,9999,9.862,
01/01/2000,00:01:19.00,-79.59,-2.44,-972.66,-2.05,0.44,-0.89,12.90,-24.75,-62.55,21.99,03/22/2020,00:01:17.900,0,0,0,0,0,0,0,9999,9.862,
01/01/2000,00:01:19.10,-63.48,-8.79,-984.38,-1.28,1.75,-1.32,11.40,-24.0,-61.80,22.09,03/22/2020,00:01:18.000,0,0,0,0,0,0,0,9999,9.862,
01/01/2000,00:01:19.20,-78.13,-10.74,-998.54,1.05,-1.22,-0.73,11.25,-24.90,-60.60,22.04,03/22/2020,00:01:18.100,0,0,0,0,0,0,0,9999,9.862,
01/01/2000,00:01:19.30,-66.89,-12.70,-970.21,1.24,-2.02,1.92,14.10,-24.90,-63.15,22.09,03/22/2020,00:01:18.200,0,0,0,0,0,0,0,9999,9.863,
01/01/2000,00:01:19.40,-70.31,-21.00,-990.72,2.42,-2.07,0.03,12.45,-24.30,-63.60,22.04,03/22/2020,00:01:18.300,0,0,0,0,0,0,0,9999,9.863,
01/01/2000,00:01:19.50,-76.66,-3.91,-985.35,-2.26,0.91,-0.76,12.60,-24.15,-63.75,21.90,03/22/2020,00:01:18.400,0,0,0,0,0,0,0,9999,9.849,
01/01/2000,00:01:19.70,-77.64,-8.30,-986.33,2.31,-2.18,0.31,13.35,-25.35,-64.20,21.90,03/22/2020,00:01:18.600,0,0,0,0,0,0,0,9999,9.850,
01/01/2000,00:01:19.80,-78.13,0.98,-985.84,0.87,1.24,-1.70,12.30,-25.65,-61.65,21.85,03/22/2020,00:01:18.700,0,0,0,0,0,0,0,9999,9.851,
01/01/2000,00:01:19.90,-61.52,-6.84,-984.86,0.49,-1.92,1.50,14.25,-24.0,-63.60,22.23,03/22/2020,00:01:18.800,0,0,0,0,0,0,0,9999,9.851,
01/01/2000,00:01:20.00,-68.85,0.49,-1021.48,3.56,-1.01,0.89,11.55,-25.65,-60.90,22.04,03/22/2020,00:01:18.900,0,0,0,0,0,0,0,9999,9.851,
01/01/2000,00:01:20.10,-78.61,-12.70,-906.74,2.83,-2.39,0.95,13.35,-25.65,-62.70,22.18,03/22/2020,00:01:19.000,0,0,0,0,0,0,0,9999,9.851,
01/01/2000,00:01:20.20,-71.29,-14.16,-1030.76,-0.33,1.09,-3.61,14.25,-25.50,-62.25,22.09,03/22/2020,00:01:19.100,0,0,0,0,0,0,0,9999,9.851,
01/01/2000,00:01:20.30,-82.03,-27.34,-938.48,0.90,-1.40,1.91,11.25,-24.90,-61.65,22.18,03/22/2020,00:01:19.200,0,0,0,0,0,0,0,9999,9.852,
01/01/2000,00:01:20.40,-67.38,-10.25,-1002.44,0.46,3.51,-1.94,11.55,-25.65,-61.65,21.85,03/22/2020,00:01:19.300,0,0,0,0,0,0,0,9999,9.852,
01/01/2000,00:01:20.50,-73.24,-9.28,-977.05,-1.75,2.59,-1.42,12.0,-24.90,-62.70,22.04,03/22/2020,00:01:19.400,0,0,0,0,0,0,0,9999,9.852,
01/01/2000,00:01:20.60,-83.50,-11.72,-985.35,2.29,-0.73,2.29,12.90,-23.70,-62.25,22.18,03/22/2020,00:01:19.500,0,0,0,0,0,0,0,9999,9.852,
01/01/2000,00:01:20.70,-74.71,-16.11,-1009.28,-1.17,1.40,-2.97,14.10,-23.85,-64.20,21.99,03/22/2020,00:01:19.600,0,0,0,0,0,0,0,9999,9.852,
01/01/2000,00:01:20.80,-84.47,-21.97,-979.98,0.50,-1.90,1.12,12.30,-26.40,-62.10,22.09,03/22/2020,00:01:19.700,0,0,0,0,0,0,0,9999,9.852,
01/01/2000,00:01:20.90,-79.59,-16.60,-976.07,-0.78,1.99,-0.27,12.90,-26.55,-59.70,22.04,03/22/2020,00:01:19.800,0,0,0,0,0,0,0,9999,9.853,
01/01/2000,00:01:21.00,-83.98,-4.88,-973.14,1.86,-1.79,1.86,11.10,-25.50,-61.80,22.09,03/22/2020,00:01:19.900,0,0,0,0,0,0,0,9999,9.850,
01/01/2000,00:01:21.11,-62.99,-13.18,-973.63,-1.01,2.09,1.39,12.30,-25.65,-62.10,22.09,03/22/2020,00:01:20.000,0,0,0,0,0,0,0,9999,9.853,
01/01/2000,00:01:21.21,-64.45,-12.21,-991.70,-0.35,1.61,-1.12,13.95,-24.30,-63.30,21.75,03/22/2020,00:01:20.100,0,0,0,0,0,0,0,9999,9.853,
01/01/2000,00:01:21.31,-67.38,-5.86,-966.31,2.84,-0.98,2.05,12.60,-23.40,-63.75,21.85,03/22/2020,00:01:20.200,0,0,0,0,0,0,0,9999,9.853,
01/01/2000,00:01:21.40,-75.68,6.84,-980.96,-1.15,1.24,0.81,12.45,-25.05,-64.05,21.70,03/22/2020,00:01:20.300,0,0,0,0,0,0,0,9999,9.854,
01/01/2000,00:01:21.50,-76.66,-11.72,-1010.25,4.0,-0.18,1.27,9.45,-26.10,-58.80,22.18,03/22/2020,00:01:20.400,0,0,0,0,0,0,0,9999,9.854,
01/01/2000,00:01:21.60,-91.80,-13.67,-960.94,-1.10,2.93,-0.20,12.0,-25.65,-61.35,21.90,03/22/2020,00:01:20.500,0,0,0,0,0,0,0,9999,9.854,
01/01/2000,00:01:21.70,-74.22,-15.14,-982.42,-0.91,0.13,-5.53,13.05,-24.15,-63.15,22.04,03/22/2020,00:01:20.600,0,0,0,0,0,0,0,9999,9.854,
01/01/2000,00:01:21.80,-65.92,-8.79,-969.73,2.86,-0.33,1.11,13.20,-24.75,-62.85,22.04,03/22/2020,00:01:20.700,0,0,0,0,0,0,0,9999,9.854,
01/01/2000,00:01:21.90,-74.22,-7.81,-971.19,-1.33,-0.04,-1.18,10.65,-26.25,-61.50,22.04,03/22/2020,00:01:20.800,0,0,0,0,0,0,0,9999,9.855,
01/01/2000,00:01:22.00,-73.73,-4.39,-981.93,-0.98,2.72,-0.97,11.70,-24.75,-63.30,22.18,03/22/2020,00:01:20.900,0,0,0,0,0,0,0,9999,9.855,
01/01/2000,00:01:22.10,-80.57,-10.25,-978.03,-0.37,1.50,-2.95,11.10,-26.25,-60.45,22.04,03/22/2020,00:01:21.000,0,0,0,0,0,0,0,9999,9.855,
01/01/2000,00:01:22.20,-83.01,-7.81,-969.73,3.12,-0.53,0.69,9.75,-24.15,-63.15,21.90,03/22/2020,00:01:21.100,0,0,0,0,0,0,0,9999,9.855,
01/01/2000,00:01:22.30,-65.43,-4.39,-968.26,1.47,-1.25,1.78,10.80,-25.35,-61.35,21.85,03/22/2020,00:01:21.200,0,0,0,0,0,0,0,9999,9.855,
01/01/2000,00:01:22.40,-87.40,-18.07,-986.33,2.95,-1.80,1.69,13.35,-24.60,-64.20,22.09,03/22/2020,00:01:21.300,0,0,0,0,0,0,0,9999,9.855,
01/01/2000,00:01:22.50,-66.41,-5.86,-984.38,-0.51,1.54,-2.22,14.10,-23.10,-61.65,21.90,03/22/2020,00:01:21.400,0,0,0,0,0,0,0,9999,9.856,
01/01/2000,00:01:22.60,-66.89,-10.74,-991.70,0.74,3.12,0.58,11.55,-25.35,-61.35,22.04,03/22/2020,00:01:21.500,0,0,0,0,0,0,0,9999,9.856,
01/01/2000,00:01:22.70,-69.82,-7.32,-988.77,0.96,-1.21,-1.99,11.70,-25.80,-61.80,22.18,03/22/2020,00:01:21.600,0,0,0,0,0,0,0,9999,9.842,
01/01/2000,00:01:22.90,-67.87,-7.32,-977.05,2.18,-1.45,0.18,13.20,-23.70,-63.60,22.09,03/22/2020,00:01:21.800,0,0,0,0,0,0,0,9999,9.841,
01/01/2000,00:01:23.00,-71.78,-4.88,-990.72,2.50,-1.26,2.27,13.50,-22.50,-63.60,22.18,03/22/2020,00:01:21.900,0,0,0,0,0,0,0,9999,9.840,
01/01/2000,00:01:23.11,-78.61,-9.28,-1000.0,-2.08,2.14,-3.15,13.95,-24.75,-63.60,22.04,03/22/2020,00:01:22.000,0,0,0,0,0,0,0,9999,9.843,
01/01/2000,00:01:23.21,-74.22,-21.00,-986.82,1.03,0.41,0.19,12.0,-25.35,-62.10,22.28,03/22/2020,00:01:22.100,0,0,0,0,0,0,0,9999,9.844,
01/01/2000,00:01:23.31,-83.01,-11.72,-975.10,-1.31,3.20,-3.24,11.40,-25.80,-60.45,21.99,03/22/2020,00:01:22.200,0,0,0,0,0,0,0,9999,9.845,
01/01/2000,00:01:23.41,-84.96,-13.67,-978.03,2.50,0.60,1.53,12.60,-24.60,-63.75,21.75,03/22/2020,00:01:22.300,0,0,0,0,0,0,0,9999,9.845,
01/01/2000,00:01:23.51,-73.24,-17.09,-999.51,0.57,-2.53,2.11,11.55,-26.70,-60.90,21.90,03/22/2020,00:01:22.400,0,0,0,0,0,0,0,9999,9.845,
01/01/2000,00:01:23.61,-77.64,-3.42,-978.03,1.98,-0.53,1.98,12.60,-24.15,-64.80,22.04,03/22/2020,00:01:22.500,0,0,0,0,0,0,0,9999,9.845,
01/01/2000,00:01:23.71,-74.71,-8.79,-977.05,-1.18,1.63,-1.82,13.20,-23.70,-62.55,22.18,03/22/2020,00:01:22.600,0,0,0,0,0,0,0,9999,9.845,
01/01/2000,00:01:23.81,-69.34,-21.97,-978.52,1.31,-1.91,1.61,11.25,-24.90,-60.60,22.18,03/22/2020,00:01:22.700,0,0,0,0,0,0,0,9999,9.846,
01/01/2000,00:01:23.91,-77.15,-16.60,-995.12,1.02,1.27,-1.53,12.0,-24.60,-61.35,22.04,03/22/2020,00:01:22.800,0,0,0,0,0,0,0,9999,9.846,
01/01/2000,00:01:24.01,-72.27,0.49,-982.42,-2.08,2.06,-1.80,12.90,-24.75,-64.65,21.70,03/22/2020,00:01:22.900,0,0,0,0,0,0,0,9999,9.846,
01/01/2000,00:01:24.11,-60.06,-15.14,-978.52,3.18,-0.94,0.93,13.20,-24.0,-64.05,22.09,03/22/2020,00:01:23.000,0,0,0,0,0,0,0,9999,9.846,
01/01/2000,00:01:24.20,-86.91,-15.14,-976.56,1.46,0.44,0.70,12.0,-25.65,-61.65,21.90,03/22/2020,00:01:23.100,0,0,0,0,0,0,0,9999,9.846,
01/01/2000,00:01:24.30,-68.36,-3.91,-977.54,-0.75,0.88,-1.98,13.80,-23.40,-63.15,22.09,03/22/2020,00:01:23.200,0,0,0,0,0,0,0,9999,9.847,
01/01/2000,00:01:24.40,-68.36,-21.48,-993.16,-1.92,1.98,-1.28,12.0,-24.90,-60.90,22.04,03/22/2020,00:01:23.300,0,0,0,0,0,0,0,9999,9.847,
01/01/2000,00:01:24.50,-82.52,-17.58,-977.54,3.87,0.17,-0.57,12.15,-26.55,-61.80,22.04,03/22/2020,00:01:23.400,0,0,0,0,0,0,0,9999,9.847,
01/01/2000,00:01:24.60,-76.17,-14.16,-971.19,2.05,-1.79,0.64,11.25,-24.90,-61.35,22.18,03/22/2020,00:01:23.500,0,0,0,0,0,0,0,9999,9.847,
01/01/2000,00:01:24.70,-78.13,-3.42,-979.98,3.10,-1.30,0.57,14.10,-23.40,-63.45,21.90,03/22/2020,00:01:23.600,0,0,0,0,0,0,0,9999,9.847,
01/01/2000,00:01:24.80,-73.24,2.93,-992.19,-1.04,3.42,-0.30,13.35,-24.15,-63.45,22.04,03/22/2020,00:01:23.700,0,0,0,0,0,0,0,9999,9.847,
01/01/2000,00:01:24.90,-66.89,-11.23,-982.91,1.72,-1.56,0.36,13.20,-23.25,-64.05,22.04,03/22/2020,00:01:23.800,0,0,0,0,0,0,0,9999,9.848,
01/01/2000,00:01:25.00,-80.08,-13.18,-989.75,2.31,-0.56,1.27,9.45,-25.35,-59.25,22.04,03/22/2020,00:01:23.900,0,0,0,0,0,0,0,9999,9.848,
01/01/2000,00:01:25.10,-90.33,-7.32,-985.35,2.40,-0.66,3.75,11.40,-25.05,-60.45,22.23,03/22/2020,00:01:24.000,0,0,0,0,0,0,0,9999,9.848,
01/01/2000,00:01:25.20,-83.98,0.98,-992.19,0.32,-0.82,1.60,13.35,-24.90,-62.40,22.09,03/22/2020,00:01:24.100,0,0,0,0,0,0,0,9999,9.848,
01/01/2000,00:01:25.30,-69.82,1.95,-982.91,1.71,-2.15,0.72,11.55,-24.90,-61.35,22.04,03/22/2020,00:01:24.200,0,0,0,0,0,0,0,9999,9.848,
01/01/2000,00:01:25.40,-75.68,-11.23,-990.23,1.28,0.12,2.88,12.30,-25.35,-63.15,22.23,03/22/2020,00:01:24.300,0,0,0,0,0,0,0,9999,9.849,
01/01/2000,00:01:25.50,-79.59,-19.04,-991.21,1.04,-1.49,2.08,11.25,-24.15,-62.70,22.09,03/22/2020,00:01:24.400,0,0,0,0,0,0,0,9999,9.849,
01/01/2000,00:01:25.60,-72.75,-21.97,-1015.63,2.92,-1.46,0.56,10.50,-26.10,-58.80,22.18,03/22/2020,00:01:24.500,0,0,0,0,0,0,0,9999,9.849,
01/01/2000,00:01:25.70,-84.96,-10.25,-950.68,-0.24,3.20,-2.32,12.0,-24.60,-60.90,21.99,03/22/2020,00:01:24.600,0,0,0,0,0,0,0,9999,9.849,
01/01/2000,00:01:25.80,-63.48,-19.53,-954.59,-1.09,1.90,-0.37,13.35,-24.60,-63.75,22.09,03/22/2020,00:01:24.700,0,0,0,0,0,0,0,9999,9.849,
01/01/2000,00:01:25.90,-75.20,-16.11,-970.70,-1.38,3.56,-1.14,12.45,-23.25,-64.05,22.09,03/22/2020,00:01:24.800,0,0,0,0,0,0,0,9999,9.849,
01/01/2000,00:01:26.00,-66.41,-18.07,-974.61,0.69,-2.26,-0.61,12.60,-23.85,-64.50,22.09,03/22/2020,00:01:24.900,0,0,0,0,0,0,0,9999,9.847,
01/01/2000,00:01:26.12,-85.45,1.46,-979.49,4.59,0.11,1.67,12.60,-24.60,-62.70,22.04,03/22/2020,00:01:25.000,0,0,0,0,0,0,0,9999,9.849,
01/01/2000,00:01:26.22,-66.41,-16.60,-995.12,-0.44,0.65,-4.16,9.45,-24.60,-61.35,22.18,03/22/2020,00:01:25.100,0,0,0,0,0,0,0,9999,9.849,
01/01/2000,00:01:26.32,-79.10,-2.93,-994.63,-1.85,2.55,-1.41,12.60,-24.60,-63.15,22.23,03/22/2020,00:01:25.200,0,0,0,0,0,0,0,9999,9.849,
01/01/2000,00:01:26.42,-79.10,1.95,-984.86,2.21,-1.43,1.05,11.10,-23.70,-60.15,22.37,03/22/2020,00:01:25.300,0,0,0,0,0,0,0,9999,9.849,
01/01/2000,00:01:26.51,-66.89,-14.65,-972.17,3.47,-1.10,1.08,12.90,-24.30,-63.60,22.04,03/22/2020,00:01:25.400,0,0,0,0,0,0,0,9999,9.849,
01/01/2000,00:01:26.62,-74.71,-19.53,-953.61,-2.36,1.79,-0.24,13.50,-24.0,-63.30,21.90,03/22/2020,00:01:25.500,0,0,0,0,0,0,0,9999,9.850,
01/01/2000,00:01:26.71,-76.17,0.0,-1001.46,-1.18,1.53,-1.24,10.80,-25.65,-61.35,22.23,03/22/2020,00:01:25.600,0,0,0,0,0,0,0,9999,9.850,
01/01/2000,00:01:26.81,-80.57,-11.72,-969.24,-1.31,2.85,-3.97,12.0,-26.10,-60.30,22.18,03/22/2020,00:01:25.700,0,0,0,0,0,0,0,9999,9.850,
01/01/2000,00:01:26.91,-65.92,-6.35,-981.45,-1.24,1.27,-2.17,12.60,-24.90,-63.15,22.23,03/22/2020,00:01:25.800,0,0,0,0,0,0,0,9999,9.850,
01/01/2000,00:01:27.01,-83.98,-5.37,-952.64,1.90,-1.08,1.36,13.95,-23.25,-64.35,22.28,03/22/2020,00:01:25.900,0,0,0,0,0,0,0,9999,9.850,
01/01/2000,00:01:27.11,-58.59,-25.88,-987.30,2.53,-1.79,0.37,13.05,-23.85,-63.45,22.23,03/22/2020,00:01:26.000,0,0,0,0,0,0,0,9999,9.850,
01/01/2000,00:01:27.21,-68.85,10.74,-988.77,1.92,-0.14,-0.02,10.20,-26.10,-62.10,22.09,03/22/2020,00:01:26.100,0,0,0,0,0,0,0,9999,9.851,
01/01/2000,00:01:27.31,-79.59,-6.84,-958.98,-2.10,2.56,-1.70,11.25,-25.35,-61.35,22.18,03/22/2020,00:01:26.200,0,0,0,0,0,0,0,9999,9.851,
01/01/2000,00:01:27.41,-70.31,4.88,-988.28,-0.56,0.84,-1.25,10.80,-26.10,-60.60,22.28,03/22/2020,00:01:26.300,0,0,0,0,0,0,0,9999,9.851,
01/01/2000,00:01:27.51,-69.34,-17.09,-979.49,-0.79,3.55,-1.15,14.85,-24.15,-64.20,22.23,03/22/2020,00:01:26.400,0,0,0,0,0,0,0,9999,9.851,
01/01/2000,00:01:27.61,-78.13,-19.53,-955.57,-2.66,1.97,-2.16,11.55,-25.65,-60.60,22.18,03/22/2020,00:01:26.500,0,0,0,0,0,0,0,9999,9.851,
01/01/2000,00:01:27.71,-76.17,-8.30,-1040.04,1.86,0.65,-1.56,13.05,-24.60,-63.75,22.09,03/22/2020,00:01:26.600,0,0,0,0,0,0,0,9999,9.852,
01/01/2000,00:01:27.81,-71.29,-22.46,-915.04,0.15,0.01,-1.53,12.15,-24.30,-64.35,22.28,03/22/2020,00:01:26.700,0,0,0,0,0,0,0,9999,9.852,
01/01/2000,00:01:27.91,-62.50,-8.30,-1023.93,-0.64,2.71,-1.65,11.70,-25.50,-63.30,22.37,03/22/2020,00:01:26.800,0,0,0,0,0,0,0,9999,9.852,
01/01/2000,00:01:28.01,-76.17,-21.00,-959.96,-1.14,1.41,-4.68,13.80,-26.40,-63.15,22.09,03/22/2020,00:01:26.900,0,0,0,0,0,0,0,9999,9.852,
01/01/2000,00:01:28.11,-79.59,-27.34,-1024.90,-2.66,1.40,-0.98,13.35,-24.60,-64.20,22.04,03/22/2020,00:01:27.000,0,0,0,0,0,0,0,9999,9.852,
01/01/2000,00:01:28.21,-62.99,-28.81,-994.14,0.65,-0.52,1.10,12.15,-24.30,-62.85,22.23,03/22/2020,00:01:27.100,0,0,0,0,0,0,0,9999,9.852,
01/01/2000,00:01:28.31,-82.52,-22.95,-998.05,-0.54,2.01,-2.56,11.70,-24.30,-62.55,22.04,03/22/2020,00:01:27.200,0,0,0,0,0,0,0,9999,9.853,
01/01/2000,00:01:28.41,-54.20,-21.97,-979.49,0.0,4.18,-2.85,12.30,-24.60,-61.65,22.28,03/22/2020,00:01:27.300,0,0,0,0,0,0,0,9999,9.853,
01/01/2000,00:01:28.51,-78.13,-13.18,-1021.97,-2.66,0.83,-2.37,10.65,-25.80,-59.40,22.37,03/22/2020,00:01:27.400,0,0,0,0,0,0,0,9999,9.853,
01/01/2000,00:01:28.61,-51.76,-27.83,-964.84,2.16,-0.48,2.98,12.15,-24.75,-62.25,22.28,03/22/2020,00:01:27.500,0,0,0,0,0,0,0,9999,9.853,
01/01/2000,00:01:28.71,-78.61,-14.16,-1001.95,4.22,0.22,1.68,11.25,-25.65,-61.35,22.42,03/22/2020,00:01:27.600,0,0,0,0,0,0,0,9999,9.853,
01/01/2000,00:01:28.81,-78.13,-12.21,-973.14,1.55,-0.73,1.07,12.90,-24.30,-63.60,22.09,03/22/2020,00:01:27.700,0,0,0,0,0,0,0,9999,9.853,
01/01/2000,00:01:28.91,-68.36,-16.60,-973.14,-0.49,1.90,-2.98,14.70,-22.95,-62.55,22.18,03/22/2020,00:01:27.800,0,0,0,0,0,0,0,9999,9.854,
01/01/2000,00:01:29.01,-73.24,-23.44,-986.82,2.07,-0.65,0.54,11.10,-26.25,-61.80,22.04,03/22/2020,00:01:27.900,0,0,0,0,0,0,0,9999,9.854,
01/01/2000,00:01:29.11,-65.92,-20.51,-967.77,-0.08,1.63,-1.43,10.35,-24.30,-60.15,22.28,03/22/2020,00:01:28.000,0,0,0,0,0,0,0,9999,9.854,
01/01/2000,00:01:29.21,-84.47,-6.84,-983.89,3.09,-0.40,1.26,11.25,-26.40,-62.10,22.52,03/22/2020,00:01:28.100,0,0,0,0,0,0,0,9999,9.854,
01/01/2000,00:01:29.31,-80.08,-9.28,-983.40,-0.37,0.90,-1.89,11.40,-24.75,-62.25,22.09,03/22/2020,00:01:28.200,0,0,0,0,0,0,0,9999,9.855,
01/01/2000,00:01:29.41,-74.71,-22.95,-971.19,-0.01,2.56,-3.08,10.65,-25.05,-59.70,22.28,03/22/2020,00:01:28.300,0,0,0,0,0,0,0,9999,9.856,
01/01/2000,00:01:29.51,-63.96,-11.72,-996.09,-0.42,1.67,-2.74,11.40,-25.05,-62.85,22.04,03/22/2020,00:01:28.400,0,0,0,0,0,0,0,9999,9.856,
01/01/2000,00:01:29.61,-72.75,5.86,-958.98,0.03,1.19,-1.24,13.20,-23.70,-62.55,22.18,03/22/2020,00:01:28.500,0,0,0,0,0,0,0,9999,9.856,
01/01/2000,00:01:29.71,-77.64,-15.14,-992.19,-0.99,2.04,-1.92,12.15,-24.30,-60.45,22.18,03/22/2020,00:01:28.600,0,0,0,0,0,0,0,9999,9.856,
01/01/2000,00:01:29.81,-80.57,-17.58,-989.26,-0.68,1.73,-2.65,13.20,-24.75,-62.55,22.09,03/22/2020,00:01:28.700,0,0,0,0,0,0,0,9999,9.856,
01/01/2000,00:01:29.91,-85.94,-20.02,-981.45,0.81,2.36,-1.07,12.15,-24.75,-63.30,22.61,03/22/2020,00:01:28.800,0,0,0,0,0,0,0,9999,9.856,
01/01/2000,00:01:30.01,-70.80,-6.35,-988.28,2.17,-0.95,-0.02,12.60,-24.60,-63.75,22.18,03/22/2020,00:01:28.900,0,0,0,0,0,0,0,9999,9.857,
01/01/2000,00:01:30.11,-76.66,-15.63,-993.16,2.86,-1.31,2.64,12.90,-24.75,-62.85,22.28,03/22/2020,00:01:29.000,0,0,0,0,0,0,0,9999,9.857,
01/01/2000,00:01:30.21,-82.52,-20.51,-964.84,2.93,-0.22,2.17,10.65,-24.75,-61.80,22.23,03/22/2020,00:01:29.100,0,0,0,0,0,0,0,9999,9.857,
01/01/2000,00:01:30.31,-81.54,-15.14,-982.91,1.29,-1.56,-0.34,10.35,-25.50,-59.10,22.23,03/22/2020,00:01:29.200,0,0,0,0,0,0,0,9999,9.857,
01/01/2000,00:01:30.41,-74.71,-17.58,-976.56,0.27,1.75,-2.24,10.80,-25.65,-61.65,22.37,03/22/2020,00:01:29.300,0,0,0,0,0,0,0,9999,9.857,
01/01/2000,00:01:30.51,-82.52,-18.55,-982.42,-0.58,1.61,-3.37,10.20,-25.35,-61.35,22.23,03/22/2020,00:01:29.400,0,0,0,0,0,0,0,9999,9.857,
01/01/2000,00:01:30.60,-66.89,-25.88,-980.96,-1.80,2.44,-1.98,12.60,-23.85,-64.50,22.52,03/22/2020,00:01:29.500,0,0,0,0,0,0,0,9999,9.858,
01/01/2000,00:01:30.70,-75.20,-9.77,-979.49,2.63,0.33,1.52,12.90,-24.75,-64.05,22.42,03/22/2020,00:01:29.600,0,0,0,0,0,0,0,9999,9.858,
01/01/2000,00:01:30.80,-75.20,-10.25,-982.91,3.45,-0.37,3.84,13.20,-24.0,-63.30,22.09,03/22/2020,00:01:29.700,0,0,0,0,0,0,0,9999,9.858,
01/01/2000,00:01:30.90,-69.82,-4.88,-986.82,1.96,0.24,2.87,11.40,-25.05,-61.80,22.57,03/22/2020,00:01:29.800,0,0,0,0,0,0,0,9999,9.858,
01/01/2000,00:01:31.00,-88.38,-15.14,-981.93,-1.08,-0.40,-0.33,12.90,-25.50,-60.45,22.42,03/22/2020,00:01:29.900,0,0,0,0,0,0,0,9999,9.858,
01/01/2000,00:01:31.10,-72.27,-7.81,-998.05,1.16,-0.66,-0.09,13.20,-24.75,-63.30,22.28,03/22/2020,00:01:30.000,0,0,0,0,0,0,0,9999,9.858,
