rtcDate,rtcTime,aX,aY,aZ,gX,gY,gZ,mX,mY,mZ,imu_degC,gps_Date,gps_Time,gps_Lat,gps_Long,gps_Alt,gps_SIV,gps_FixType,gps_GroundSpeed,gps_Heading,gps_pDOP,output_Hz,
01/01/2000,00:00:02.14,-196.29,-189.94,-893.07,1.22,11.63,5.19,-22.65,122.70,15.30,21.56,03/22/2020,00:00:01.100,0,0,0,0,0,0,0,9999,20.0,
01/01/2000,00:00:02.24,202.15,-48.83,-1165.53,-11.55,83.92,-8.55,-27.60,122.10,16.20,21.66,03/22/2020,00:00:01.200,0,0,0,0,0,0,0,9999,13.333,
01/01/2000,00:00:02.34,109.38,211.91,-916.99,-15.22,-88.02,3.15,-26.10,122.55,12.0,21.66,03/22/2020,00:00:01.400,0,0,0,0,0,0,0,9999,8.824,
01/01/2000,00:00:02.49,-145.51,81.54,-503.91,13.14,-13.26,12.25,-23.40,119.70,10.35,21.75,03/22/2020,00:00:01.600,0,0,0,0,0,0,0,9999,7.273,
01/01/2000,00:00:02.70,44.92,-610.35,-1131.84,5.20,-2.73,-6.93,-25.35,120.30,12.0,21.66,03/22/2020,00:00:01.700,0,0,0,0,0,0,0,9999,7.692,
01/01/2000,00:00:02.82,-132.81,-307.13,-937.99,5.66,-5.08,2.21,-27.30,117.90,15.60,21.75,03/22/2020,00:00:01.800,0,0,0,0,0,0,0,9999,8.108,
01/01/2000,00:00:02.92,-57.13,-30.76,-947.27,4.15,-5.82,1.84,-26.40,119.10,13.05,22.04,03/22/2020,00:00:01.900,0,0,0,0,0,0,0,9999,8.333,
01/01/2000,00:00:03.01,-90.82,-208.98,-984.38,3.72,-1.35,-2.17,-25.35,118.80,13.05,22.04,03/22/2020,00:00:02.000,0,0,0,0,0,0,0,9999,8.511,
01/01/2000,00:00:03.11,-44.43,-4.88,-958.01,2.95,-3.53,-2.79,-24.0,119.55,10.95,21.75,03/22/2020,00:00:02.100,0,0,0,0,0,0,0,9999,8.654,
01/01/2000,00:00:03.21,-125.49,-224.12,-541.50,-1.96,5.95,45.55,-22.05,120.15,9.0,21.85,03/22/2020,00:00:02.200,0,0,0,0,0,0,0,9999,8.772,
01/01/2000,00:00:03.31,-51.76,45.41,-980.96,12.81,-4.94,2.04,-24.60,118.80,12.30,21.90,03/22/2020,00:00:02.300,0,0,0,0,0,0,0,9999,8.871,
01/01/2000,00:00:03.41,-114.26,-41.99,-988.77,-3.15,6.18,-1.43,-26.70,119.70,13.20,21.85,03/22/2020,00:00:02.400,0,0,0,0,0,0,0,9999,8.955,
01/01/2000,00:00:03.51,-130.86,-30.76,-781.25,2.21,3.19,2.99,-23.70,117.90,11.85,22.23,03/22/2020,00:00:02.600,0,0,0,0,0,0,0,9999,8.497,
01/01/2000,00:00:03.68,-55.66,1.95,-1016.60,0.19,1.43,2.32,-22.20,120.30,9.15,22.09,03/22/2020,00:00:02.700,0,0,0,0,0,0,0,9999,8.589,
01/01/2000,00:00:03.79,-40.53,23.93,-923.83,-0.31,2.56,-3.19,-22.20,119.10,8.70,22.23,03/22/2020,00:00:02.800,0,0,0,0,0,0,0,9999,8.621,
01/01/2000,00:00:03.89,-112.79,-10.25,-1010.74,-3.24,2.32,-1.79,-22.50,120.60,9.90,22.23,03/22/2020,00:00:02.900,0,0,0,0,0,0,0,9999,8.649,
01/01/2000,00:00:04.02,-51.27,42.97,-968.26,2.25,-3.47,3.28,-24.90,117.15,14.25,22.23,03/22/2020,00:00:03.000,0,0,0,0,0,0,0,9999,8.763,
01/01/2000,00:00:04.11,-51.76,-56.15,-1026.37,1.11,1.08,-1.29,-24.0,119.85,10.95,22.23,03/22/2020,00:00:03.100,0,0,0,0,0,0,0,9999,8.824,
01/01/2000,00:00:04.21,-64.45,-33.20,-1079.10,2.75,17.77,2.66,-24.60,120.30,10.50,22.28,03/22/2020,00:00:03.200,0,0,0,0,0,0,0,9999,8.879,
01/01/2000,00:00:04.31,-38.09,-143.07,-1193.85,-4.05,-0.66,0.50,-22.65,119.40,10.35,22.04,03/22/2020,00:00:03.300,0,0,0,0,0,0,0,9999,8.929,
01/01/2000,00:00:04.41,-41.02,-221.19,-1028.81,26.62,2.82,-1.40,-22.95,119.10,9.15,22.18,03/22/2020,00:00:03.400,0,0,0,0,0,0,0,9999,8.974,
01/01/2000,00:00:04.51,144.53,333.98,347.17,-26.37,-5.70,-9.34,-22.65,120.15,10.65,22.37,03/22/2020,00:00:03.500,0,0,0,0,0,0,0,9999,9.016,
01/01/2000,00:00:04.61,-51.76,-86.43,-983.40,-0.02,-1.51,-0.78,-24.90,119.40,12.15,22.37,03/22/2020,00:00:03.600,0,0,0,0,0,0,0,9999,9.055,
01/01/2000,00:00:04.71,253.42,-149.90,-406.74,-2.37,-10.24,-14.71,-24.30,119.55,12.30,22.28,03/22/2020,00:00:03.700,0,0,0,0,0,0,0,9999,9.091,
01/01/2000,00:00:04.81,-108.40,-245.61,-880.37,-4.77,-4.05,-32.28,-23.10,122.70,10.35,22.09,03/22/2020,00:00:03.800,0,0,0,0,0,0,0,9999,9.124,
01/01/2000,00:00:04.91,-196.78,-159.67,-946.78,2.29,-4.78,-46.0,-24.90,123.0,12.45,22.37,03/22/2020,00:00:03.900,0,0,0,0,0,0,0,9999,9.155,
01/01/2000,00:00:05.01,41.02,342.29,-825.20,-1.22,1.42,32.34,-22.50,125.40,11.55,22.37,03/22/2020,00:00:04.000,0,0,0,0,0,0,0,9999,9.184,
01/01/2000,00:00:05.11,-80.57,33.69,-1032.71,-3.92,4.56,-1.14,-23.10,126.0,11.40,22.23,03/22/2020,00:00:04.100,0,0,0,0,0,0,0,9999,9.211,
01/01/2000,00:00:05.21,-39.55,4.88,-983.89,0.40,-0.09,2.87,-25.35,125.10,14.10,22.28,03/22/2020,00:00:04.200,0,0,0,0,0,0,0,9999,9.236,
01/01/2000,00:00:05.31,-46.88,-17.58,-974.12,0.59,-2.43,2.34,-24.60,124.35,13.05,22.52,03/22/2020,00:00:04.300,0,0,0,0,0,0,0,9999,9.259,
01/01/2000,00:00:05.41,-79.10,-19.04,-1008.30,-0.44,2.44,0.10,-23.10,125.25,11.85,22.37,03/22/2020,00:00:04.400,0,0,0,0,0,0,0,9999,9.281,
01/01/2000,00:00:05.51,-104.49,-26.86,-891.11,-1.80,5.49,-0.76,-24.45,126.0,11.85,22.28,03/22/2020,00:00:04.500,0,0,0,0,0,0,0,9999,9.302,
01/01/2000,00:00:05.61,-63.96,-33.20,-1013.67,1.50,-0.34,2.12,-25.50,125.70,13.95,22.42,03/22/2020,00:00:04.600,0,0,0,0,0,0,0,9999,9.322,
01/01/2000,00:00:05.71,-52.73,-64.45,-982.42,-1.11,1.53,-4.82,-23.10,126.75,11.85,22.28,03/22/2020,00:00:04.700,0,0,0,0,0,0,0,9999,9.341,
01/01/2000,00:00:05.81,-57.13,8.30,-988.77,1.85,-0.95,2.46,-25.95,125.70,15.30,22.57,03/22/2020,00:00:04.800,0,0,0,0,0,0,0,9999,9.358,
01/01/2000,00:00:05.91,-50.78,-0.98,-985.35,2.01,-1.98,0.24,-23.25,124.65,14.10,22.42,03/22/2020,00:00:04.900,0,0,0,0,0,0,0,9999,9.375,
01/01/2000,00:00:06.01,-62.01,-23.93,-988.28,0.67,-0.05,-0.21,-26.85,124.05,15.15,22.61,03/22/2020,00:00:05.000,0,0,0,0,0,0,0,9999,9.391,
01/01/2000,00:00:06.11,-53.22,-21.00,-1001.46,-0.91,2.24,-3.24,-23.70,125.70,11.10,22.28,03/22/2020,00:00:05.100,0,0,0,0,0,0,0,9999,9.406,
01/01/2000,00:00:06.21,-55.18,-31.25,-992.19,-0.76,0.74,-1.30,-22.65,125.25,11.40,22.42,03/22/2020,00:00:05.200,0,0,0,0,0,0,0,9999,9.420,
01/01/2000,00:00:06.31,-63.48,-28.32,-953.61,-1.57,2.72,-2.95,-25.05,124.65,11.55,22.28,03/22/2020,00:00:05.300,0,0,0,0,0,0,0,9999,9.434,
01/01/2000,00:00:06.41,-52.25,-16.60,-1005.86,2.30,-1.53,-0.12,-25.20,123.45,15.60,22.57,03/22/2020,00:00:05.400,0,0,0,0,0,0,0,9999,9.447,
01/01/2000,00:00:06.51,-65.92,-29.30,-963.38,2.87,1.10,1.08,-24.90,124.20,14.25,22.81,03/22/2020,00:00:05.500,0,0,0,0,0,0,0,9999,9.459,
01/01/2000,00:00:06.61,-54.20,-21.00,-989.75,-1.69,1.66,-2.91,-22.95,125.40,10.50,22.52,03/22/2020,00:00:05.600,0,0,0,0,0,0,0,9999,9.471,
01/01/2000,00:00:06.71,-62.50,-26.86,-996.58,-1.40,-0.31,-2.32,-24.0,125.85,12.30,22.57,03/22/2020,00:00:05.700,0,0,0,0,0,0,0,9999,9.483,
01/01/2000,00:00:06.81,-52.25,-29.79,-958.98,2.26,-1.33,0.63,-25.05,124.35,14.10,22.76,03/22/2020,00:00:05.800,0,0,0,0,0,0,0,9999,9.494,
01/01/2000,00:00:06.91,-62.01,-33.69,-1006.84,-1.05,1.78,-1.02,-23.25,125.40,10.50,22.81,03/22/2020,00:00:05.900,0,0,0,0,0,0,0,9999,9.504,
01/01/2000,00:00:07.01,-62.99,-33.69,-979.49,0.54,-1.86,3.81,-25.20,124.20,13.95,22.90,03/22/2020,00:00:06.000,0,0,0,0,0,0,0,9999,9.514,
01/01/2000,00:00:07.11,-68.36,-17.09,-970.21,-0.37,3.61,0.29,-23.55,123.30,13.80,22.90,03/22/2020,00:00:06.100,0,0,0,0,0,0,0,9999,9.524,
01/01/2000,00:00:07.21,-59.57,-12.21,-1002.44,-2.12,1.45,-2.99,-24.0,126.15,11.25,22.81,03/22/2020,00:00:06.200,0,0,0,0,0,0,0,9999,9.533,
01/01/2000,00:00:07.31,-65.43,-31.74,-972.17,2.79,-1.73,2.50,-23.25,124.65,12.30,22.81,03/22/2020,00:00:06.300,0,0,0,0,0,0,0,9999,9.542,
01/01/2000,00:00:07.41,-51.76,-30.27,-1016.60,2.66,-0.75,-0.87,-23.70,125.25,12.15,22.81,03/22/2020,00:00:06.400,0,0,0,0,0,0,0,9999,9.551,
01/01/2000,00:00:07.51,-56.64,-40.04,-975.59,-1.31,0.84,-1.35,-25.95,123.0,13.95,22.90,03/22/2020,00:00:06.500,0,0,0,0,0,0,0,9999,9.559,
01/01/2000,00:00:07.61,-68.85,-39.06,-967.77,-2.79,1.40,-0.70,-25.80,123.60,15.45,22.90,03/22/2020,00:00:06.600,0,0,0,0,0,0,0,9999,9.567,
01/01/2000,00:00:07.71,-57.62,-32.71,-977.54,-0.61,1.96,-2.58,-22.95,123.60,14.10,22.90,03/22/2020,00:00:06.700,0,0,0,0,0,0,0,9999,9.591,
01/01/2000,00:00:07.81,-62.99,-12.70,-992.19,-1.49,3.23,-1.29,-23.40,125.70,12.15,22.81,03/22/2020,00:00:06.800,0,0,0,0,0,0,0,9999,9.599,
01/01/2000,00:00:07.91,-60.55,-18.55,-1108.89,-1.18,2.51,0.67,-24.45,123.45,13.95,22.81,03/22/2020,00:00:06.900,0,0,0,0,0,0,0,9999,9.605,
01/01/2000,00:00:08.01,-74.71,-14.16,-981.93,0.93,3.25,-0.27,-23.40,124.95,12.15,22.90,03/22/2020,00:00:07.000,0,0,0,0,0,0,0,9999,9.612,
01/01/2000,00:00:08.11,-57.13,-27.83,-980.96,0.95,-2.25,0.25,-23.25,125.85,11.55,23.09,03/22/2020,00:00:07.100,0,0,0,0,0,0,0,9999,9.619,
01/01/2000,00:00:08.21,-66.89,-21.97,-1004.39,-2.31,2.59,-2.37,-26.10,124.35,15.45,22.95,03/22/2020,00:00:07.200,0,0,0,0,0,0,0,9999,9.609,
01/01/2000,00:00:08.31,-55.18,-31.25,-979.49,-1.72,2.05,-3.19,-25.20,125.70,13.20,23.09,03/22/2020,00:00:07.300,0,0,0,0,0,0,0,9999,9.631,
01/01/2000,00:00:08.41,-64.94,-41.02,-986.82,2.64,-2.54,2.35,-24.45,125.25,11.85,23.09,03/22/2020,00:00:07.400,0,0,0,0,0,0,0,9999,9.637,
01/01/2000,00:00:08.51,-57.62,-42.97,-993.65,1.99,-2.75,0.94,-23.10,126.0,12.15,23.09,03/22/2020,00:00:07.500,0,0,0,0,0,0,0,9999,9.642,
01/01/2000,00:00:08.61,-61.52,-22.95,-995.12,-0.09,1.56,-2.27,-24.45,124.20,14.55,23.09,03/22/2020,00:00:07.600,0,0,0,0,0,0,0,9999,9.648,
01/01/2000,00:00:08.71,-64.94,-33.69,-980.96,3.01,0.24,1.10,-23.70,124.20,12.15,23.24,03/22/2020,00:00:07.700,0,0,0,0,0,0,0,9999,9.653,
01/01/2000,00:00:08.81,-58.11,-19.04,-994.63,-2.03,2.65,-2.11,-25.05,124.35,14.10,23.09,03/22/2020,00:00:07.800,0,0,0,0,0,0,0,9999,9.658,
01/01/2000,00:00:08.91,-61.04,-34.67,-986.82,-2.53,1.59,-1.13,-25.05,124.35,14.40,23.14,03/22/2020,00:00:07.900,0,0,0,0,0,0,0,9999,9.663,
01/01/2000,00:00:09.01,-64.45,-36.62,-1006.35,-1.59,2.76,-1.69,-25.80,124.05,13.80,23.24,03/22/2020,00:00:08.000,0,0,0,0,0,0,0,9999,9.668,
01/01/2000,00:00:09.11,-42.97,-28.32,-973.14,0.92,-0.51,3.42,-24.45,125.25,11.10,23.09,03/22/2020,00:00:08.100,0,0,0,0,0,0,0,9999,9.673,
01/01/2000,00:00:09.21,-50.78,-28.32,-986.82,2.86,-2.97,0.32,-25.05,124.65,12.0,23.09,03/22/2020,00:00:08.200,0,0,0,0,0,0,0,9999,9.677,
01/01/2000,00:00:09.31,-45.41,-33.20,-970.70,-1.46,1.91,-1.86,-25.35,123.60,14.40,22.95,03/22/2020,00:00:08.300,0,0,0,0,0,0,0,9999,9.682,
01/01/2000,00:00:09.41,-48.83,-29.79,-1003.91,0.57,0.67,-3.34,-25.20,125.70,12.15,23.33,03/22/2020,00:00:08.400,0,0,0,0,0,0,0,9999,9.686,
01/01/2000,00:00:09.51,-50.78,-21.00,-990.72,0.32,-0.53,1.58,-24.0,125.40,12.30,23.14,03/22/2020,00:00:08.500,0,0,0,0,0,0,0,9999,9.690,
01/01/2000,00:00:09.61,-51.27,-23.44,-979.49,2.01,-0.24,2.15,-24.0,125.10,11.55,23.24,03/22/2020,00:00:08.600,0,0,0,0,0,0,0,9999,9.695,
01/01/2000,00:00:09.70,-47.36,-36.62,-994.14,-2.32,3.74,-2.51,-26.10,125.10,14.85,23.33,03/22/2020,00:00:08.700,0,0,0,0,0,0,0,9999,9.699,
01/01/2000,00:00:09.80,-59.57,-27.34,-979.00,1.60,-1.17,1.38,-24.15,125.25,11.40,23.09,03/22/2020,00:00:08.800,0,0,0,0,0,0,0,9999,9.702,
01/01/2000,00:00:09.90,-46.88,-24.41,-984.38,-0.92,2.56,-2.50,-25.95,124.95,16.05,23.33,03/22/2020,00:00:08.900,0,0,0,0,0,0,0,9999,9.706,
01/01/2000,00:00:10.00,-62.50,-26.86,-986.82,0.16,1.87,1.26,-26.25,124.50,13.50,23.14,03/22/2020,00:00:09.000,0,0,0,0,0,0,0,9999,9.673,
01/01/2000,00:00:10.11,-66.89,-32.71,-975.10,2.24,-3.80,3.24,-25.20,124.50,12.90,23.14,03/22/2020,00:00:09.100,0,0,0,0,0,0,0,9999,9.701,
01/01/2000,00:00:10.21,-53.71,-20.02,-999.51,2.48,0.40,1.50,-22.95,126.90,11.55,23.09,03/22/2020,00:00:09.200,0,0,0,0,0,0,0,9999,9.705,
01/01/2000,00:00:10.31,-51.27,-27.83,-993.16,-1.16,2.27,0.15,-22.50,124.05,13.35,23.09,03/22/2020,00:00:09.300,0,0,0,0,0,0,0,9999,9.709,
01/01/2000,00:00:10.41,-64.45,-29.30,-993.16,1.79,1.24,1.15,-25.20,124.95,14.55,23.09,03/22/2020,00:00:09.400,0,0,0,0,0,0,0,9999,9.712,
01/01/2000,00:00:10.51,-50.78,-14.65,-987.79,2.71,-0.39,0.85,-24.45,125.70,13.50,23.24,03/22/2020,00:00:09.600,0,0,0,0,0,0,0,9999,9.591,
01/01/2000,00:00:10.70,-46.88,-30.76,-983.40,-1.82,0.89,-2.42,-23.25,124.05,11.55,23.33,03/22/2020,00:00:09.700,0,0,0,0,0,0,0,9999,9.618,
01/01/2000,00:00:10.80,-54.69,-33.20,-978.52,-1.19,1.79,-1.70,-24.0,126.60,12.60,23.33,03/22/2020,00:00:09.800,0,0,0,0,0,0,0,9999,9.622,
01/01/2000,00:00:10.90,-68.85,-31.25,-991.70,3.04,-0.24,3.50,-25.20,124.20,13.50,23.29,03/22/2020,00:00:09.900,0,0,0,0,0,0,0,9999,9.626,
01/01/2000,00:00:11.00,-57.62,-31.25,-972.66,3.64,-1.31,1.72,-26.25,124.20,15.60,23.48,03/22/2020,00:00:10.000,0,0,0,0,0,0,0,9999,9.598,
01/01/2000,00:00:11.11,-70.31,-27.34,-985.35,1.68,0.58,0.29,-24.15,126.0,11.40,23.43,03/22/2020,00:00:10.100,0,0,0,0,0,0,0,9999,9.624,
01/01/2000,00:00:11.21,-45.41,-24.41,-981.45,-0.37,2.63,-1.28,-23.70,126.0,11.40,23.29,03/22/2020,00:00:10.200,0,0,0,0,0,0,0,9999,9.628,
01/01/2000,00:00:11.31,-52.25,-8.79,-981.93,2.29,-1.73,-0.60,-25.50,124.95,15.0,23.62,03/22/2020,00:00:10.300,0,0,0,0,0,0,0,9999,9.632,
01/01/2000,00:00:11.41,-66.41,-21.97,-998.05,-0.66,0.71,-1.33,-22.50,126.60,13.05,23.43,03/22/2020,00:00:10.400,0,0,0,0,0,0,0,9999,9.636,
01/01/2000,00:00:11.51,-52.73,-22.95,-973.14,-1.52,4.18,-3.47,-25.20,123.0,15.60,23.57,03/22/2020,00:00:10.500,0,0,0,0,0,0,0,9999,9.640,
01/01/2000,00:00:11.61,-61.04,-21.00,-993.65,-0.54,3.11,0.60,-25.50,123.75,13.50,23.48,03/22/2020,00:00:10.600,0,0,0,0,0,0,0,9999,9.644,
01/01/2000,00:00:11.71,-57.62,-38.09,-989.26,-1.60,1.82,-0.09,-25.80,125.85,14.85,23.43,03/22/2020,00:00:10.700,0,0,0,0,0,0,0,9999,9.647,
01/01/2000,00:00:11.81,-59.57,-36.62,-973.63,3.81,-2.08,2.95,-22.50,125.40,11.55,23.57,03/22/2020,00:00:10.800,0,0,0,0,0,0,0,9999,9.651,
01/01/2000,00:00:11.91,-66.41,-36.13,-979.98,2.63,-1.75,-0.11,-22.50,125.85,12.30,23.57,03/22/2020,00:00:10.900,0,0,0,0,0,0,0,9999,9.654,
01/01/2000,00:00:12.01,-55.66,-23.93,-971.68,-0.29,2.74,-2.02,-25.05,124.65,14.40,23.33,03/22/2020,00:00:11.000,0,0,0,0,0,0,0,9999,9.658,
01/01/2000,00:00:12.11,-57.13,-18.55,-982.91,-2.16,1.27,-1.05,-27.0,124.20,16.05,23.62,03/22/2020,00:00:11.100,0,0,0,0,0,0,0,9999,9.671,
01/01/2000,00:00:12.21,-62.01,-18.07,-992.68,-0.60,1.86,0.58,-24.45,123.75,13.95,23.62,03/22/2020,00:00:11.200,0,0,0,0,0,0,0,9999,9.674,
01/01/2000,00:00:12.31,-58.11,-24.90,-974.12,3.64,0.98,-2.95,-23.25,125.40,11.25,23.57,03/22/2020,00:00:11.300,0,0,0,0,0,0,0,9999,9.677,
01/01/2000,00:00:12.41,-47.85,-16.11,-996.58,-1.77,1.09,-1.11,-24.45,123.75,13.20,23.57,03/22/2020,00:00:11.400,0,0,0,0,0,0,0,9999,9.681,
01/01/2000,00:00:12.51,-55.66,-24.41,-978.03,1.54,-1.77,-0.35,-23.40,125.70,13.20,23.67,03/22/2020,00:00:11.500,0,0,0,0,0,0,0,9999,9.684,
01/01/2000,00:00:12.61,-68.85,-21.48,-999.51,1.63,-1.44,0.27,-23.40,126.45,11.40,23.57,03/22/2020,00:00:11.600,0,0,0,0,0,0,0,9999,9.687,
01/01/2000,00:00:12.71,-44.43,-28.32,-981.93,-1.89,1.89,-2.60,-25.95,123.45,14.25,23.57,03/22/2020,00:00:11.700,0,0,0,0,0,0,0,9999,9.690,
01/01/2000,00:00:12.81,-61.04,-44.92,-976.56,-1.21,-0.71,-1.99,-25.50,124.50,12.15,23.62,03/22/2020,00:00:11.800,0,0,0,0,0,0,0,9999,9.692,
01/01/2000,00:00:12.91,-54.69,-27.34,-950.68,2.65,-0.26,2.34,-24.15,124.20,11.40,23.62,03/22/2020,00:00:11.900,0,0,0,0,0,0,0,9999,9.695,
01/01/2000,00:00:13.01,-56.15,-29.79,-998.54,2.65,-1.65,0.10,-24.0,127.35,11.55,23.57,03/22/2020,00:00:12.000,0,0,0,0,0,0,0,9999,9.698,
01/01/2000,00:00:13.11,-70.80,-22.46,-984.38,-2.47,0.81,-1.43,-24.45,123.75,13.50,23.76,03/22/2020,00:00:12.100,0,0,0,0,0,0,0,9999,9.701,
01/01/2000,00:00:13.21,-61.04,-26.37,-965.82,0.51,-1.69,1.85,-22.95,125.10,13.05,23.62,03/22/2020,00:00:12.200,0,0,0,0,0,0,0,9999,9.704,
01/01/2000,00:00:13.31,-49.80,-30.76,-977.05,2.25,-1.29,0.68,-24.60,122.55,14.40,23.76,03/22/2020,00:00:12.300,0,0,0,0,0,0,0,9999,9.706,
01/01/2000,00:00:13.41,-56.64,-38.09,-1007.81,2.40,-2.31,-0.66,-25.20,124.95,13.95,23.67,03/22/2020,00:00:12.400,0,0,0,0,0,0,0,9999,9.709,
01/01/2000,00:00:13.51,-53.22,-41.99,-983.89,2.27,-2.69,2.64,-25.95,124.20,14.55,23.57,03/22/2020,00:00:12.500,0,0,0,0,0,0,0,9999,9.711,
01/01/2000,00:00:13.61,-48.34,-28.81,-967.77,-0.33,1.56,-0.54,-24.45,125.25,11.40,23.76,03/22/2020,00:00:12.600,0,0,0,0,0,0,0,9999,9.714,
01/01/2000,00:00:13.71,-72.27,-29.30,-1019.53,-1.51,0.58,-0.15,-23.70,124.95,12.45,23.57,03/22/2020,00:00:12.700,0,0,0,0,0,0,0,9999,9.716,
01/01/2000,00:00:13.81,-41.50,-44.43,-962.40,-0.90,0.21,-2.06,-24.0,125.10,12.0,23.62,03/22/2020,00:00:12.800,0,0,0,0,0,0,0,9999,9.719,
01/01/2000,00:00:13.90,-64.45,-42.48,-983.40,3.55,-0.30,-0.25,-24.15,124.95,12.45,23.86,03/22/2020,00:00:12.900,0,0,0,0,0,0,0,9999,9.721,
01/01/2000,00:00:14.01,-63.96,-30.27,-979.98,2.0,-1.34,-0.09,-24.15,125.25,15.0,23.57,03/22/2020,00:00:13.000,0,0,0,0,0,0,0,9999,9.699,
01/01/2000,00:00:14.11,-62.99,-28.81,-1003.91,-2.13,1.76,-0.23,-24.0,125.40,11.55,24.00,03/22/2020,00:00:13.100,0,0,0,0,0,0,0,9999,9.718,
01/01/2000,00:00:14.21,-53.22,-32.71,-966.80,-2.31,2.12,-0.61,-23.25,125.85,11.25,23.67,03/22/2020,00:00:13.200,0,0,0,0,0,0,0,9999,9.720,
01/01/2000,00:00:14.31,-44.43,-23.44,-976.07,1.94,0.21,2.37,-25.95,125.25,14.25,23.62,03/22/2020,00:00:13.300,0,0,0,0,0,0,0,9999,9.722,
01/01/2000,00:00:14.41,-51.27,-29.30,-995.61,0.51,-2.84,-1.53,-24.90,124.05,16.20,23.76,03/22/2020,00:00:13.400,0,0,0,0,0,0,0,9999,9.724,
01/01/2000,00:00:14.51,-45.41,-27.34,-959.96,1.89,-2.33,2.54,-22.20,124.05,12.0,23.76,03/22/2020,00:00:13.500,0,0,0,0,0,0,0,9999,9.727,
01/01/2000,00:00:14.61,-61.04,-35.16,-988.77,0.52,-1.13,2.94,-25.35,124.35,14.85,23.81,03/22/2020,00:00:13.600,0,0,0,0,0,0,0,9999,9.729,
01/01/2000,00:00:14.71,-53.22,-17.09,-977.54,-1.43,1.44,-4.52,-23.70,126.75,12.15,23.81,03/22/2020,00:00:13.700,0,0,0,0,0,0,0,9999,9.731,
01/01/2000,00:00:14.81,-65.43,-15.63,-989.75,1.29,0.01,2.11,-23.10,126.0,11.40,23.81,03/22/2020,00:00:13.800,0,0,0,0,0,0,0,9999,9.741,
01/01/2000,00:00:14.91,-51.27,-19.04,-1003.91,2.11,-0.98,2.50,-23.10,124.50,11.85,23.62,03/22/2020,00:00:13.900,0,0,0,0,0,0,0,9999,9.743,
01/01/2000,00:00:15.01,-60.06,-32.71,-985.84,-1.40,3.41,-2.69,-25.50,124.20,15.0,24.00,03/22/2020,00:00:14.000,0,0,0,0,0,0,0,9999,9.745,
01/01/2000,00:00:15.11,-51.27,-20.02,-978.52,-0.85,1.86,-0.18,-27.0,123.45,12.90,23.62,03/22/2020,00:00:14.100,0,0,0,0,0,0,0,9999,9.747,
01/01/2000,00:00:15.21,-50.78,-24.90,-997.07,2.79,-0.74,3.02,-23.70,124.50,11.40,23.57,03/22/2020,00:00:14.200,0,0,0,0,0,0,0,9999,9.749,
01/01/2000,00:00:15.31,-55.18,-27.83,-969.24,3.54,-1.35,0.79,-23.55,126.15,10.20,23.81,03/22/2020,00:00:14.300,0,0,0,0,0,0,0,9999,9.751,
01/01/2000,00:00:15.41,-63.48,-29.30,-1000.0,-2.91,2.04,-1.19,-26.25,124.20,12.90,23.67,03/22/2020,00:00:14.400,0,0,0,0,0,0,0,9999,9.752,
01/01/2000,00:00:15.51,-45.41,-32.23,-971.19,1.92,-0.71,2.05,-23.40,124.50,12.90,23.67,03/22/2020,00:00:14.500,0,0,0,0,0,0,0,9999,9.754,
01/01/2000,00:00:15.61,-53.71,-27.34,-959.96,-3.31,1.18,-1.14,-26.70,124.20,15.0,23.33,03/22/2020,00:00:14.600,0,0,0,0,0,0,0,9999,9.756,
01/01/2000,00:00:15.71,-49.80,-43.95,-1006.84,2.70,-1.01,3.05,-23.70,123.45,15.30,23.81,03/22/2020,00:00:14.700,0,0,0,0,0,0,0,9999,9.758,
01/01/2000,00:00:15.81,-47.36,-34.67,-978.52,-1.41,0.31,-0.47,-24.0,124.05,12.0,23.96,03/22/2020,00:00:14.800,0,0,0,0,0,0,0,9999,9.760,
01/01/2000,00:00:15.91,-60.55,-24.90,-979.49,0.04,-0.10,-2.47,-24.15,125.25,9.60,23.81,03/22/2020,00:00:14.900,0,0,0,0,0,0,0,9999,9.761,
01/01/2000,00:00:16.01,-56.15,-29.79,-1005.37,-2.33,1.21,-0.95,-23.55,126.15,12.0,23.76,03/22/2020,00:00:15.000,0,0,0,0,0,0,0,9999,9.742,
01/01/2000,00:00:16.13,-62.50,-24.90,-1007.81,0.29,-0.46,-1.06,-24.15,125.25,12.90,23.86,03/22/2020,00:00:15.100,0,0,0,0,0,0,0,9999,9.765,
01/01/2000,00:00:16.23,-64.45,-7.32,-972.66,-0.29,0.23,0.56,-24.0,125.85,12.30,24.00,03/22/2020,00:00:15.200,0,0,0,0,0,0,0,9999,9.766,
01/01/2000,00:00:16.33,-46.88,-16.60,-1002.93,0.28,1.85,-0.54,-24.30,126.15,12.60,23.57,03/22/2020,00:00:15.300,0,0,0,0,0,0,0,9999,9.768,
01/01/2000,00:00:16.43,-47.36,-29.30,-983.40,-0.73,0.77,-1.22,-23.40,125.70,12.15,24.00,03/22/2020,00:00:15.400,0,0,0,0,0,0,0,9999,9.770,
01/01/2000,00:00:16.53,-63.96,-21.97,-985.84,-1.02,2.26,-0.95,-23.70,124.20,10.35,23.86,03/22/2020,00:00:15.500,0,0,0,0,0,0,0,9999,9.771,
01/01/2000,00:00:16.63,-42.97,-19.04,-959.96,1.48,-1.45,0.02,-23.55,125.40,12.60,24.00,03/22/2020,00:00:15.600,0,0,0,0,0,0,0,9999,9.773,
01/01/2000,00:00:16.73,-54.20,-25.39,-1006.35,-1.99,1.27,-1.18,-23.40,125.70,10.65,24.10,03/22/2020,00:00:15.700,0,0,0,0,0,0,0,9999,9.774,
01/01/2000,00:00:16.83,-67.87,-33.69,-996.58,0.64,1.18,-1.85,-24.30,125.40,12.30,23.96,03/22/2020,00:00:15.800,0,0,0,0,0,0,0,9999,9.776,
01/01/2000,00:00:16.93,-219.73,-66.89,-870.61,4.56,2.95,44.59,-22.35,123.45,12.15,23.86,03/22/2020,00:00:15.900,0,0,0,0,0,0,0,9999,9.777,
01/01/2000,00:00:17.03,-112.79,-96.19,-1076.66,0.80,29.88,2.73,-23.55,122.55,12.60,23.96,03/22/2020,00:00:16.000,0,0,0,0,0,0,0,9999,9.759,
01/01/2000,00:00:17.13,151.37,134.28,-819.34,-10.12,182.44,33.24,-29.85,123.75,14.25,24.00,03/22/2020,00:00:16.100,0,0,0,0,0,0,0,9999,9.780,
01/01/2000,00:00:17.23,201.66,83.01,-1064.45,-32.34,-45.57,89.88,-35.40,120.60,19.05,23.96,03/22/2020,00:00:16.200,0,0,0,0,0,0,0,9999,9.782,
01/01/2000,00:00:17.33,-88.38,-42.97,-1592.77,-27.47,-43.33,-44.70,-34.05,119.10,15.15,24.10,03/22/2020,00:00:16.300,0,0,0,0,0,0,0,9999,9.783,
01/01/2000,00:00:17.43,-99.12,35.64,-1269.04,23.58,-213.96,62.74,-27.0,117.45,4.05,24.00,03/22/2020,00:00:16.400,0,0,0,0,0,0,0,9999,9.785,
01/01/2000,00:00:17.53,28.32,-4.39,-0.98,34.15,-235.08,76.93,-8.10,109.95,-3.15,24.10,03/22/2020,00:00:16.500,0,0,0,0,0,0,0,9999,9.786,
01/01/2000,00:00:17.63,-510.74,11.72,-361.33,75.37,196.29,-30.22,6.75,111.0,-2.10,24.20,03/22/2020,00:00:16.600,0,0,0,0,0,0,0,9999,9.788,
01/01/2000,00:00:17.73,-188.48,-13.67,-864.75,82.24,-16.46,26.48,-5.55,98.55,-1.50,24.20,03/22/2020,00:00:16.700,0,0,0,0,0,0,0,9999,9.789,
01/01/2000,00:00:17.83,-219.24,-149.90,-757.32,81.15,156.89,-45.47,-11.70,94.35,2.70,24.00,03/22/2020,00:00:16.800,0,0,0,0,0,0,0,9999,9.790,
01/01/2000,00:00:17.93,-74.22,-166.99,-1289.55,-1.66,15.86,-13.55,-22.20,91.05,7.35,24.10,03/22/2020,00:00:16.900,0,0,0,0,0,0,0,9999,9.792,
01/01/2000,00:00:18.03,-59.57,330.57,-750.98,-82.51,147.62,-37.37,-21.75,95.10,4.50,24.29,03/22/2020,00:00:17.000,0,0,0,0,0,0,0,9999,9.774,
01/01/2000,00:00:18.13,525.88,57.13,-1036.13,44.50,-10.16,-24.76,-30.75,90.60,8.70,24.00,03/22/2020,00:00:17.100,0,0,0,0,0,0,0,9999,9.776,
01/01/2000,00:00:18.23,371.58,-336.91,-823.73,30.06,-56.09,-16.50,-28.05,79.35,-4.35,24.00,03/22/2020,00:00:17.200,0,0,0,0,0,0,0,9999,9.777,
01/01/2000,00:00:18.33,615.23,-421.88,-1116.21,-70.90,65.38,-75.50,-11.25,93.0,-3.0,24.10,03/22/2020,00:00:17.300,0,0,0,0,0,0,0,9999,9.779,
01/01/2000,00:00:18.43,652.83,-293.95,-986.82,-4.82,-1.16,-36.76,-29.70,103.95,19.35,24.20,03/22/2020,00:00:17.400,0,0,0,0,0,0,0,9999,9.780,
01/01/2000,00:00:18.53,500.98,-373.54,-834.47,-4.10,2.63,-28.84,-33.75,104.55,14.55,24.00,03/22/2020,00:00:17.500,0,0,0,0,0,0,0,9999,9.787,
01/01/2000,00:00:18.63,286.62,-215.82,-571.78,-64.32,-34.54,24.26,-31.95,106.35,10.65,24.20,03/22/2020,00:00:17.600,0,0,0,0,0,0,0,9999,9.789,
01/01/2000,00:00:18.73,-166.02,-141.11,-752.44,-0.53,16.08,15.77,-26.70,102.30,9.0,23.96,03/22/2020,00:00:17.700,0,0,0,0,0,0,0,9999,9.790,
01/01/2000,00:00:18.83,-135.74,-128.42,-604.98,-5.60,91.58,14.64,-21.30,107.55,4.35,24.10,03/22/2020,00:00:17.800,0,0,0,0,0,0,0,9999,9.791,
01/01/2000,00:00:18.93,-86.91,-96.68,-1052.25,-1.68,-12.27,-2.11,-22.50,106.20,4.20,24.20,03/22/2020,00:00:17.900,0,0,0,0,0,0,0,9999,9.792,
01/01/2000,00:00:19.03,-63.48,-35.16,-994.63,2.90,-0.83,3.68,-20.85,104.10,7.20,23.81,03/22/2020,00:00:18.000,0,0,0,0,0,0,0,9999,9.794,
01/01/2000,00:00:19.13,-65.92,-32.23,-995.12,3.13,-1.58,-0.22,-24.30,105.15,6.60,23.86,03/22/2020,00:00:18.100,0,0,0,0,0,0,0,9999,9.795,
01/01/2000,00:00:19.23,-50.29,-25.88,-982.91,-2.44,2.56,-3.02,-22.20,104.40,4.95,24.10,03/22/2020,00:00:18.200,0,0,0,0,0,0,0,9999,9.796,
01/01/2000,00:00:19.33,-49.32,-41.99,-995.61,-1.47,1.84,-3.0,-20.85,106.05,5.10,24.15,03/22/2020,00:00:18.300,0,0,0,0,0,0,0,9999,9.797,
01/01/2000,00:00:19.43,-51.27,-36.62,-982.91,1.18,1.67,-0.82,-24.30,104.40,7.65,24.34,03/22/2020,00:00:18.400,0,0,0,0,0,0,0,9999,9.798,
01/01/2000,00:00:19.53,-43.46,-47.36,-996.09,1.05,-1.76,3.20,-22.05,105.60,5.70,24.00,03/22/2020,00:00:18.500,0,0,0,0,0,0,0,9999,9.799,
01/01/2000,00:00:19.63,-34.18,-43.95,-1000.0,-1.40,0.69,-2.42,-23.40,105.30,6.45,24.00,03/22/2020,00:00:18.600,0,0,0,0,0,0,0,9999,9.801,
01/01/2000,00:00:19.73,-48.83,-33.69,-979.00,-0.65,2.77,-1.71,-22.05,105.60,7.20,24.20,03/22/2020,00:00:18.700,0,0,0,0,0,0,0,9999,9.802,
01/01/2000,00:00:19.83,-44.43,-31.25,-956.54,0.02,1.72,-2.79,-22.35,104.55,7.50,24.29,03/22/2020,00:00:18.800,0,0,0,0,0,0,0,9999,9.803,
01/01/2000,00:00:19.93,-52.73,-50.29,-991.21,2.89,0.27,1.85,-21.30,105.60,5.70,24.34,03/22/2020,00:00:18.900,0,0,0,0,0,0,0,9999,9.804,
01/01/2000,00:00:20.03,-58.11,-19.53,-973.63,1.80,-1.66,1.76,-22.05,104.55,5.10,24.10,03/22/2020,00:00:19.000,0,0,0,0,0,0,0,9999,9.805,
01/01/2000,00:00:20.13,-63.48,-38.57,-986.33,1.62,-0.61,0.01,-22.65,104.10,8.25,24.20,03/22/2020,00:00:19.100,0,0,0,0,0,0,0,9999,9.806,
01/01/2000,00:00:20.23,-45.41,-42.97,-972.17,1.34,-1.11,1.93,-24.45,104.85,7.95,24.34,03/22/2020,00:00:19.200,0,0,0,0,0,0,0,9999,9.807,
01/01/2000,00:00:20.33,-47.36,-46.88,-987.79,1.31,-2.02,0.30,-23.10,103.05,7.50,24.29,03/22/2020,00:00:19.300,0,0,0,0,0,0,0,9999,9.808,
01/01/2000,00:00:20.43,-48.83,-46.88,-987.30,-1.42,1.82,-1.47,-20.85,105.60,5.40,24.10,03/22/2020,00:00:19.400,0,0,0,0,0,0,0,9999,9.809,
01/01/2000,00:00:20.53,-55.66,-41.50,-984.38,-3.02,2.53,-1.73,-23.40,104.55,7.95,24.20,03/22/2020,00:00:19.500,0,0,0,0,0,0,0,9999,9.810,
01/01/2000,00:00:20.63,-50.78,-24.90,-973.63,2.39,-0.81,1.80,-21.30,106.35,3.60,24.29,03/22/2020,00:00:19.600,0,0,0,0,0,0,0,9999,9.811,
01/01/2000,00:00:20.73,-63.96,-49.80,-1012.70,2.34,-0.15,1.06,-21.60,106.05,5.70,24.34,03/22/2020,00:00:19.700,0,0,0,0,0,0,0,9999,9.812,
01/01/2000,00:00:20.82,-55.66,-35.64,-986.33,-2.45,2.72,-1.32,-21.15,105.45,3.75,24.29,03/22/2020,00:00:19.800,0,0,0,0,0,0,0,9999,9.813,
01/01/2000,00:00:20.92,-48.83,-49.32,-988.77,-0.24,3.40,0.35,-22.95,105.15,7.35,24.29,03/22/2020,00:00:19.900,0,0,0,0,0,0,0,9999,9.814,
01/01/2000,00:00:21.02,-35.16,-36.13,-987.30,1.74,2.35,4.66,-21.60,104.85,4.65,24.10,03/22/2020,00:00:20.000,0,0,0,0,0,0,0,9999,9.815,
01/01/2000,00:00:21.12,-51.27,-42.48,-967.29,-1.05,2.0,-0.15,-22.20,105.90,4.50,24.53,03/22/2020,00:00:20.100,0,0,0,0,0,0,0,9999,9.816,
01/01/2000,00:00:21.22,-42.48,-30.76,-988.77,-2.84,0.94,-0.86,-20.70,106.65,4.95,24.39,03/22/2020,00:00:20.300,0,0,0,0,0,0,0,9999,9.771,
01/01/2000,00:00:21.41,-54.20,-39.06,-980.47,0.64,-1.39,0.85,-23.40,104.55,8.55,24.20,03/22/2020,00:00:20.400,0,0,0,0,0,0,0,9999,9.772,
01/01/2000,00:00:21.51,-70.31,-58.59,-998.05,1.21,0.97,0.21,-23.55,104.70,7.65,24.34,03/22/2020,00:00:20.500,0,0,0,0,0,0,0,9999,9.774,
01/01/2000,00:00:21.61,-44.43,-39.55,-981.45,0.06,2.81,-0.38,-23.25,105.90,4.50,24.29,03/22/2020,00:00:20.600,0,0,0,0,0,0,0,9999,9.775,
01/01/2000,00:00:21.71,-54.69,-39.06,-981.45,3.0,-0.08,1.53,-24.0,103.20,8.40,24.34,03/22/2020,00:00:20.700,0,0,0,0,0,0,0,9999,9.776,
01/01/2000,00:00:21.81,-48.34,-51.27,-974.61,0.0,1.71,-1.98,-20.70,105.90,4.20,24.39,03/22/2020,00:00:20.800,0,0,0,0,0,0,0,9999,9.777,
01/01/2000,00:00:21.91,-48.34,-35.64,-986.33,2.53,-1.79,0.21,-20.55,105.30,5.40,24.20,03/22/2020,00:00:20.900,0,0,0,0,0,0,0,9999,9.778,
01/01/2000,00:00:22.01,-37.11,-33.20,-978.03,-2.44,2.86,-1.31,-24.0,103.20,7.05,24.39,03/22/2020,00:00:21.000,0,0,0,0,0,0,0,9999,9.779,
01/01/2000,00:00:22.11,-47.36,-32.71,-969.24,-1.64,0.47,-4.08,-25.05,102.90,10.20,24.34,03/22/2020,00:00:21.100,0,0,0,0,0,0,0,9999,9.780,
01/01/2000,00:00:22.21,-49.80,-27.34,-988.28,3.67,-0.34,0.54,-22.20,105.45,5.55,24.39,03/22/2020,00:00:21.200,0,0,0,0,0,0,0,9999,9.782,
01/01/2000,00:00:22.31,-56.64,-47.85,-981.45,2.84,-0.39,1.03,-21.30,104.85,5.10,24.39,03/22/2020,00:00:21.300,0,0,0,0,0,0,0,9999,9.783,
01/01/2000,00:00:22.41,-41.02,-30.76,-958.50,-1.91,1.63,-3.43,-20.55,107.10,5.70,24.39,03/22/2020,00:00:21.400,0,0,0,0,0,0,0,9999,9.784,
01/01/2000,00:00:22.51,-50.29,-52.73,-1008.30,3.92,0.16,2.89,-24.0,103.95,7.65,24.29,03/22/2020,00:00:21.500,0,0,0,0,0,0,0,9999,9.785,
01/01/2000,00:00:22.61,-50.78,-39.55,-991.70,2.56,-0.51,0.74,-24.30,102.90,7.35,24.29,03/22/2020,00:00:21.600,0,0,0,0,0,0,0,9999,9.786,
01/01/2000,00:00:22.71,-57.62,-34.18,-984.86,-1.24,1.42,-3.16,-22.65,103.80,6.45,24.29,03/22/2020,00:00:21.700,0,0,0,0,0,0,0,9999,9.787,
01/01/2000,00:00:22.81,-31.74,-33.20,-982.42,3.31,-1.31,1.86,-19.50,106.05,4.65,24.39,03/22/2020,00:00:21.800,0,0,0,0,0,0,0,9999,9.788,
01/01/2000,00:00:22.91,-40.04,-34.67,-985.35,-2.33,1.06,-0.92,-23.70,103.50,7.50,24.34,03/22/2020,00:00:22.000,0,0,0,0,0,0,0,9999,9.737,
01/01/2000,00:00:23.11,-45.90,-42.48,-976.56,0.77,-2.18,1.48,-21.75,103.95,6.0,24.29,03/22/2020,00:00:22.100,0,0,0,0,0,0,0,9999,9.743,
01/01/2000,00:00:23.21,-58.59,-40.04,-984.38,-1.89,0.70,-1.69,-24.45,104.10,6.90,24.39,03/22/2020,00:00:22.200,0,0,0,0,0,0,0,9999,9.745,
01/01/2000,00:00:23.31,-54.69,-52.73,-992.68,-1.96,2.18,-2.0,-22.65,104.85,7.20,24.20,03/22/2020,00:00:22.300,0,0,0,0,0,0,0,9999,9.746,
01/01/2000,00:00:23.41,-38.57,-45.90,-983.40,1.03,0.24,0.94,-22.20,105.15,4.50,24.53,03/22/2020,00:00:22.400,0,0,0,0,0,0,0,9999,9.747,
01/01/2000,00:00:23.51,-49.80,-36.13,-978.52,2.64,-1.28,1.93,-21.30,106.05,4.35,24.39,03/22/2020,00:00:22.500,0,0,0,0,0,0,0,9999,9.748,
01/01/2000,00:00:23.61,-57.13,-61.04,-969.24,1.34,0.04,1.70,-21.15,105.90,5.55,24.48,03/22/2020,00:00:22.600,0,0,0,0,0,0,0,9999,9.749,
01/01/2000,00:00:23.71,-52.73,-34.67,-990.72,1.63,-1.23,2.24,-22.95,103.65,8.40,24.29,03/22/2020,00:00:22.700,0,0,0,0,0,0,0,9999,9.750,
01/01/2000,00:00:23.81,-50.78,-38.09,-984.86,2.45,-1.17,-0.12,-22.95,105.15,7.05,24.34,03/22/2020,00:00:22.800,0,0,0,0,0,0,0,9999,9.752,
01/01/2000,00:00:23.91,-59.08,-41.02,-985.84,-1.31,2.31,-0.28,-22.20,105.90,4.95,24.34,03/22/2020,00:00:22.900,0,0,0,0,0,0,0,9999,9.753,
01/01/2000,00:00:24.01,-44.92,-40.04,-984.86,-1.40,0.91,-0.79,-22.35,106.80,3.30,24.34,03/22/2020,00:00:23.000,0,0,0,0,0,0,0,9999,9.754,
01/01/2000,00:00:24.11,-55.66,-25.88,-995.12,-0.90,-0.09,0.46,-23.55,104.40,7.65,24.48,03/22/2020,00:00:23.100,0,0,0,0,0,0,0,9999,9.755,
01/01/2000,00:00:24.21,-50.78,-48.34,-986.82,3.59,-0.69,-1.68,-21.60,106.05,4.35,24.34,03/22/2020,00:00:23.200,0,0,0,0,0,0,0,9999,9.756,
01/01/2000,00:00:24.31,-52.25,-41.99,-994.14,-2.57,-0.33,-2.40,-22.20,103.95,8.40,24.63,03/22/2020,00:00:23.300,0,0,0,0,0,0,0,9999,9.757,
01/01/2000,00:00:24.41,-56.64,-45.41,-959.47,-0.71,-0.77,-0.69,-22.95,104.70,7.65,24.48,03/22/2020,00:00:23.400,0,0,0,0,0,0,0,9999,9.758,
01/01/2000,00:00:24.51,-55.18,-38.57,-988.77,0.18,-1.73,1.28,-23.70,104.55,7.20,24.63,03/22/2020,00:00:23.500,0,0,0,0,0,0,0,9999,9.759,
01/01/2000,00:00:24.61,-64.94,-45.90,-984.38,0.08,1.98,-1.42,-21.30,105.60,4.65,24.68,03/22/2020,00:00:23.600,0,0,0,0,0,0,0,9999,9.760,
01/01/2000,00:00:24.71,-52.73,-38.57,-979.49,-0.60,0.24,-3.04,-19.95,106.20,4.50,24.53,03/22/2020,00:00:23.700,0,0,0,0,0,0,0,9999,9.761,
01/01/2000,00:00:24.81,-41.02,-45.41,-993.65,-0.47,2.13,-1.63,-22.95,105.90,6.30,24.48,03/22/2020,00:00:23.800,0,0,0,0,0,0,0,9999,9.763,
01/01/2000,00:00:24.91,-45.41,-37.60,-991.70,-0.45,2.57,-2.24,-20.85,104.55,6.45,24.48,03/22/2020,00:00:23.900,0,0,0,0,0,0,0,9999,9.764,
01/01/2000,00:00:25.01,-53.22,-51.76,-985.35,-0.56,3.79,-2.38,-23.10,104.55,7.95,24.63,03/22/2020,00:00:24.000,0,0,0,0,0,0,0,9999,9.765,
01/01/2000,00:00:25.11,-45.41,-38.09,-979.49,0.92,-1.86,1.24,-20.85,104.10,6.15,24.72,03/22/2020,00:00:24.100,0,0,0,0,0,0,0,9999,9.766,
01/01/2000,00:00:25.21,-49.32,-39.06,-980.96,3.38,-2.02,2.34,-22.35,103.50,8.25,24.53,03/22/2020,00:00:24.200,0,0,0,0,0,0,0,9999,9.767,
01/01/2000,00:00:25.31,-41.99,-35.64,-976.56,-1.90,2.02,-1.24,-22.05,104.85,5.10,24.63,03/22/2020,00:00:24.300,0,0,0,0,0,0,0,9999,9.768,
01/01/2000,00:00:25.41,-59.08,-51.27,-996.09,-1.87,2.35,-1.86,-22.20,106.20,4.50,24.72,03/22/2020,00:00:24.400,0,0,0,0,0,0,0,9999,9.769,
01/01/2000,00:00:25.51,-58.59,-34.67,-984.38,3.54,-0.34,1.09,-23.70,104.85,7.50,24.39,03/22/2020,00:00:24.500,0,0,0,0,0,0,0,9999,9.770,
01/01/2000,00:00:25.61,-37.60,-53.71,-991.21,-1.73,0.65,-2.16,-22.95,103.65,7.65,24.34,03/22/2020,00:00:24.600,0,0,0,0,0,0,0,9999,9.771,
01/01/2000,00:00:25.71,-42.48,-35.16,-980.96,3.87,-1.72,2.79,-21.60,104.85,5.10,24.53,03/22/2020,00:00:24.700,0,0,0,0,0,0,0,9999,9.772,
01/01/2000,00:00:25.81,-49.32,-54.69,-998.54,2.97,0.12,0.56,-21.30,106.05,5.40,24.63,03/22/2020,00:00:24.800,0,0,0,0,0,0,0,9999,9.773,
01/01/2000,00:00:25.91,-42.48,-39.55,-989.75,-1.18,1.51,-0.92,-21.15,104.70,6.30,24.63,03/22/2020,00:00:24.900,0,0,0,0,0,0,0,9999,9.773,
01/01/2000,00:00:26.01,-48.34,-53.22,-979.49,-1.65,1.27,-0.81,-23.25,105.45,4.95,24.39,03/22/2020,00:00:25.000,0,0,0,0,0,0,0,9999,9.774,
01/01/2000,00:00:26.11,-45.90,-50.78,-980.47,0.66,-1.70,3.36,-23.10,104.55,7.50,24.39,03/22/2020,00:00:25.100,0,0,0,0,0,0,0,9999,9.775,
01/01/2000,00:00:26.21,-44.43,-40.53,-978.52,2.82,-0.88,4.54,-23.10,104.85,6.90,24.63,03/22/2020,00:00:25.200,0,0,0,0,0,0,0,9999,9.776,
01/01/2000,00:00:26.31,-61.04,-41.50,-980.47,0.62,-1.03,1.12,-23.25,103.65,8.40,24.68,03/22/2020,00:00:25.300,0,0,0,0,0,0,0,9999,9.777,
01/01/2000,00:00:26.41,-39.55,-34.18,-992.19,4.27,-0.40,0.89,-20.70,106.20,6.30,24.53,03/22/2020,00:00:25.400,0,0,0,0,0,0,0,9999,9.778,
01/01/2000,00:00:26.51,-41.99,-50.78,-986.82,3.38,1.77,-0.70,-21.75,106.20,5.25,24.63,03/22/2020,00:00:25.500,0,0,0,0,0,0,0,9999,9.779,
01/01/2000,00:00:26.61,-44.92,-55.18,-986.33,2.65,-1.38,-0.27,-21.30,104.85,4.65,24.53,03/22/2020,00:00:25.600,0,0,0,0,0,0,0,9999,9.784,
01/01/2000,00:00:26.71,-36.62,-36.13,-988.77,2.44,-0.65,-0.32,-26.10,104.40,7.35,24.63,03/22/2020,00:00:25.700,0,0,0,0,0,0,0,9999,9.781,
01/01/2000,00:00:26.81,-45.90,-32.71,-988.77,3.29,-1.21,3.28,-24.15,104.85,6.15,24.82,03/22/2020,00:00:25.800,0,0,0,0,0,0,0,9999,9.786,
01/01/2000,00:00:26.91,-51.27,-26.37,-955.57,-0.34,0.81,-0.14,-22.35,103.80,3.60,24.82,03/22/2020,00:00:25.900,0,0,0,0,0,0,0,9999,9.787,
01/01/2000,00:00:27.01,-47.85,-55.18,-989.26,-0.60,1.89,-1.48,-22.20,105.15,4.50,24.63,03/22/2020,00:00:26.000,0,0,0,0,0,0,0,9999,9.787,
01/01/2000,00:00:27.11,-62.01,-43.46,-978.03,-0.05,2.83,-2.35,-23.25,104.40,6.30,24.72,03/22/2020,00:00:26.100,0,0,0,0,0,0,0,9999,9.788,
01/01/2000,00:00:27.21,-45.90,-38.57,-984.86,2.41,-2.05,0.63,-22.20,106.20,4.95,24.82,03/22/2020,00:00:26.200,0,0,0,0,0,0,0,9999,9.785,
01/01/2000,00:00:27.31,-44.43,-38.57,-994.63,1.89,-2.31,1.53,-24.15,104.10,7.95,24.48,03/22/2020,00:00:26.300,0,0,0,0,0,0,0,9999,9.790,
01/01/2000,00:00:27.41,-57.62,-49.80,-979.98,3.47,-2.34,3.33,-24.45,104.55,9.0,24.48,03/22/2020,00:00:26.400,0,0,0,0,0,0,0,9999,9.791,
01/01/2000,00:00:27.51,-46.39,-39.06,-987.79,-1.91,1.56,-3.73,-20.70,105.45,3.15,24.68,03/22/2020,00:00:26.500,0,0,0,0,0,0,0,9999,9.792,
01/01/2000,00:00:27.61,-50.29,-41.50,-983.40,-1.64,2.91,-1.11,-21.45,105.45,4.20,24.53,03/22/2020,00:00:26.600,0,0,0,0,0,0,0,9999,9.792,
01/01/2000,00:00:27.71,-59.57,-52.25,-972.66,1.46,0.30,-0.83,-20.70,103.95,4.50,24.34,03/22/2020,00:00:26.700,0,0,0,0,0,0,0,9999,9.793,
01/01/2000,00:00:27.81,-36.62,-40.53,-991.21,-1.82,0.25,-2.01,-24.0,103.95,6.60,24.63,03/22/2020,00:00:26.800,0,0,0,0,0,0,0,9999,9.794,
01/01/2000,00:00:27.91,-59.57,-39.06,-991.70,-0.89,2.08,-1.92,-23.40,103.50,9.30,24.63,03/22/2020,00:00:26.900,0,0,0,0,0,0,0,9999,9.795,
01/01/2000,00:00:28.01,-57.62,-28.81,-964.36,3.73,1.17,0.08,-23.10,103.05,7.95,24.91,03/22/2020,00:00:27.000,0,0,0,0,0,0,0,9999,9.796,
01/01/2000,00:00:28.11,-39.55,-39.55,-948.73,0.23,1.18,-3.76,-21.15,105.90,6.30,24.82,03/22/2020,00:00:27.100,0,0,0,0,0,0,0,9999,9.796,
01/01/2000,00:00:28.21,-42.97,-30.76,-976.56,1.93,-0.40,1.12,-23.70,104.10,7.50,24.82,03/22/2020,00:00:27.200,0,0,0,0,0,0,0,9999,9.797,
01/01/2000,00:00:28.31,-49.80,-41.02,-988.28,-0.53,0.82,-2.70,-21.30,105.60,4.65,24.72,03/22/2020,00:00:27.300,0,0,0,0,0,0,0,9999,9.798,
01/01/2000,00:00:28.41,-52.73,-50.29,-992.68,2.29,-1.34,-0.86,-20.40,105.90,4.50,24.91,03/22/2020,00:00:27.400,0,0,0,0,0,0,0,9999,9.799,
01/01/2000,00:00:28.51,-48.34,-44.92,-983.89,-0.19,1.30,-2.12,-26.10,103.65,9.45,24.53,03/22/2020,00:00:27.500,0,0,0,0,0,0,0,9999,9.799,
01/01/2000,00:00:28.61,-39.06,-23.44,-971.68,-1.08,2.53,-0.12,-24.15,104.10,7.95,24.87,03/22/2020,00:00:27.600,0,0,0,0,0,0,0,9999,9.800,
01/01/2000,00:00:28.71,-75.20,-42.97,-985.84,0.47,-2.44,1.13,-21.60,106.80,4.65,24.87,03/22/2020,00:00:27.700,0,0,0,0,0,0,0,9999,9.801,
01/01/2000,00:00:28.81,-66.41,-33.69,-992.68,-1.31,0.33,-1.86,-22.65,105.60,3.60,24.87,03/22/2020,00:00:27.800,0,0,0,0,0,0,0,9999,9.802,
01/01/2000,00:00:28.91,-41.50,-38.09,-989.75,3.27,-2.26,1.67,-22.50,106.95,7.65,24.82,03/22/2020,00:00:27.900,0,0,0,0,0,0,0,9999,9.802,
01/01/2000,00:00:29.01,-66.41,-56.15,-986.82,-1.42,0.38,-2.23,-20.85,105.60,4.05,24.91,03/22/2020,00:00:28.000,0,0,0,0,0,0,0,9999,9.792,
01/01/2000,00:00:29.12,-29.79,-35.64,-989.26,0.92,-2.19,0.82,-25.05,103.65,7.65,24.91,03/22/2020,00:00:28.100,0,0,0,0,0,0,0,9999,9.797,
01/01/2000,00:00:29.22,-44.92,-32.23,-988.77,1.40,0.21,1.22,-23.10,104.85,7.20,24.91,03/22/2020,00:00:28.200,0,0,0,0,0,0,0,9999,9.797,
01/01/2000,00:00:29.32,-54.20,-43.95,-991.21,-1.79,1.96,-1.71,-23.40,104.55,6.90,24.87,03/22/2020,00:00:28.300,0,0,0,0,0,0,0,9999,9.798,
01/01/2000,00:00:29.42,-52.25,-38.57,-977.54,0.81,-0.77,1.53,-22.20,106.20,4.20,24.68,03/22/2020,00:00:28.400,0,0,0,0,0,0,0,9999,9.799,
01/01/2000,00:00:29.52,-59.08,-31.74,-988.28,2.31,-0.76,2.21,-21.15,105.90,4.95,24.68,03/22/2020,00:00:28.500,0,0,0,0,0,0,0,9999,9.800,
01/01/2000,00:00:29.62,-50.78,-32.71,-986.33,-0.44,2.41,-0.48,-20.55,105.30,5.40,24.72,03/22/2020,00:00:28.600,0,0,0,0,0,0,0,9999,9.800,
01/01/2000,00:00:29.72,-44.92,-44.92,-975.59,3.20,-4.03,3.33,-22.50,103.95,7.35,24.72,03/22/2020,00:00:28.700,0,0,0,0,0,0,0,9999,9.801,
01/01/2000,00:00:29.82,-44.43,-41.50,-995.61,0.22,-0.22,2.45,-23.40,104.55,6.90,24.72,03/22/2020,00:00:28.800,0,0,0,0,0,0,0,9999,9.802,
01/01/2000,00:00:29.92,-48.83,-38.09,-982.42,1.09,1.76,3.01,-20.40,105.45,4.95,24.48,03/22/2020,00:00:28.900,0,0,0,0,0,0,0,9999,9.803,
01/01/2000,00:00:30.02,-41.50,-32.23,-986.82,-1.44,1.27,-3.98,-23.55,104.70,6.30,24.82,03/22/2020,00:00:29.000,0,0,0,0,0,0,0,9999,9.803,
01/01/2000,00:00:30.12,-41.02,-37.11,-990.23,4.40,-1.47,2.39,-23.10,105.60,5.70,24.63,03/22/2020,00:00:29.100,0,0,0,0,0,0,0,9999,9.804,
01/01/2000,00:00:30.22,-45.90,-34.18,-986.33,-2.56,1.83,-1.65,-20.70,106.65,6.30,24.87,03/22/2020,00:00:29.200,0,0,0,0,0,0,0,9999,9.805,
01/01/2000,00:00:30.32,-44.92,-49.80,-983.40,2.56,-1.19,0.59,-25.50,103.80,9.0,24.91,03/22/2020,00:00:29.300,0,0,0,0,0,0,0,9999,9.805,
01/01/2000,00:00:30.42,-54.20,-43.46,-978.52,1.05,1.28,3.37,-23.40,104.55,7.95,24.72,03/22/2020,00:00:29.400,0,0,0,0,0,0,0,9999,9.806,
01/01/2000,00:00:30.52,-47.85,-48.83,-974.61,0.36,-0.05,-1.92,-21.60,106.35,5.70,24.87,03/22/2020,00:00:29.500,0,0,0,0,0,0,0,9999,9.807,
01/01/2000,00:00:30.62,-44.43,-39.55,-980.96,3.27,-1.19,4.04,-22.65,105.60,6.15,24.82,03/22/2020,00:00:29.600,0,0,0,0,0,0,0,9999,9.807,
01/01/2000,00:00:30.72,-42.97,-45.90,-999.51,2.16,-2.32,-0.31,-20.85,106.35,4.65,24.91,03/22/2020,00:00:29.700,0,0,0,0,0,0,0,9999,9.808,
01/01/2000,00:00:30.82,-38.57,-35.64,-986.33,-0.65,1.65,-2.11,-22.95,104.70,5.55,25.01,03/22/2020,00:00:29.800,0,0,0,0,0,0,0,9999,9.809,
01/01/2000,00:00:30.92,-47.36,-28.32,-967.29,2.94,-3.24,1.21,-24.15,103.50,6.15,24.91,03/22/2020,00:00:29.900,0,0,0,0,0,0,0,9999,9.809,
01/01/2000,00:00:31.02,-43.95,-38.57,-983.89,3.40,-2.33,0.49,-24.0,105.15,6.30,24.91,03/22/2020,00:00:30.000,0,0,0,0,0,0,0,9999,9.810,
01/01/2000,00:00:31.12,-61.52,-29.79,-985.84,-1.60,2.32,-1.50,-23.10,106.80,4.65,24.87,03/22/2020,00:00:30.100,0,0,0,0,0,0,0,9999,9.811,
01/01/2000,00:00:31.22,-45.41,-49.32,-989.26,-1.33,3.49,-2.90,-21.45,105.15,5.25,24.53,03/22/2020,00:00:30.200,0,0,0,0,0,0,0,9999,9.811,
01/01/2000,00:00:31.32,-48.83,-53.71,-982.42,0.88,-2.02,1.12,-21.45,106.65,4.50,25.01,03/22/2020,00:00:30.300,0,0,0,0,0,0,0,9999,9.812,
01/01/2000,00:00:31.42,-51.76,-43.46,-999.51,-0.69,-1.83,2.53,-21.45,106.20,5.25,25.01,03/22/2020,00:00:30.400,0,0,0,0,0,0,0,9999,9.813,
01/01/2000,00:00:31.52,-40.04,-31.25,-991.70,-1.34,0.48,-2.89,-23.70,103.80,7.95,25.01,03/22/2020,00:00:30.500,0,0,0,0,0,0,0,9999,9.813,
01/01/2000,00:00:31.62,-42.97,-28.81,-986.33,1.60,-1.99,0.04,-23.10,102.75,7.20,24.91,03/22/2020,00:00:30.600,0,0,0,0,0,0,0,9999,9.817,
01/01/2000,00:00:31.72,-39.55,-36.13,-994.14,-1.95,0.86,-2.76,-21.60,107.10,4.35,24.72,03/22/2020,00:00:30.700,0,0,0,0,0,0,0,9999,9.818,
01/01/2000,00:00:31.82,-41.99,-50.29,-983.89,-2.82,1.25,-1.69,-22.65,105.60,5.70,24.87,03/22/2020,00:00:30.800,0,0,0,0,0,0,0,9999,9.818,
01/01/2000,00:00:31.92,-44.43,-44.43,-994.14,-1.74,2.46,-2.80,-23.55,104.40,7.05,24.72,03/22/2020,00:00:30.900,0,0,0,0,0,0,0,9999,9.819,
01/01/2000,00:00:32.02,-42.48,-35.16,-985.35,0.76,-2.82,-1.92,-22.35,105.60,4.65,25.06,03/22/2020,00:00:31.000,0,0,0,0,0,0,0,9999,9.820,
01/01/2000,00:00:32.12,-44.43,-28.32,-985.35,-2.07,0.47,-2.47,-23.10,103.80,5.40,25.01,03/22/2020,00:00:31.100,0,0,0,0,0,0,0,9999,9.820,
01/01/2000,00:00:32.22,-47.85,-37.11,-995.61,-1.53,0.98,-1.63,-23.70,104.85,6.45,25.06,03/22/2020,00:00:31.200,0,0,0,0,0,0,0,9999,9.821,
01/01/2000,00:00:32.32,-41.50,-25.88,-989.75,1.50,-0.89,1.81,-22.65,104.55,6.15,25.06,03/22/2020,00:00:31.300,0,0,0,0,0,0,0,9999,9.821,
01/01/2000,00:00:32.42,-34.67,-44.43,-975.59,-0.44,0.51,-2.39,-20.85,105.30,4.35,24.91,03/22/2020,00:00:31.400,0,0,0,0,0,0,0,9999,9.822,
01/01/2000,00:00:32.52,-46.88,-45.41,-987.79,-3.86,4.05,-4.03,-22.20,106.65,4.20,24.82,03/22/2020,00:00:31.500,0,0,0,0,0,0,0,9999,9.823,
01/01/2000,00:00:32.62,-43.95,-44.43,-984.38,-1.66,2.51,0.22,-23.10,105.60,6.45,24.72,03/22/2020,00:00:31.600,0,0,0,0,0,0,0,9999,9.823,
01/01/2000,00:00:32.72,-32.71,-25.39,-983.40,-2.25,2.69,-2.72,-23.10,104.85,7.95,24.87,03/22/2020,00:00:31.700,0,0,0,0,0,0,0,9999,9.824,
01/01/2000,00:00:32.82,-54.20,-43.46,-985.84,-3.24,3.58,-2.95,-22.35,103.50,7.20,24.72,03/22/2020,00:00:31.800,0,0,0,0,0,0,0,9999,9.824,
01/01/2000,00:00:32.92,-41.99,-40.04,-978.03,-1.66,3.38,-2.18,-21.15,106.20,5.55,24.91,03/22/2020,00:00:31.900,0,0,0,0,0,0,0,9999,9.825,
01/01/2000,00:00:33.02,-49.80,-37.60,-988.28,1.09,-1.27,2.21,-22.50,105.15,7.65,24.72,03/22/2020,00:00:32.000,0,0,0,0,0,0,0,9999,9.825,
01/01/2000,00:00:33.12,-50.78,-40.53,-981.45,-0.78,3.67,-1.34,-21.75,106.20,4.50,25.01,03/22/2020,00:00:32.100,0,0,0,0,0,0,0,9999,9.826,
01/01/2000,00:00:33.22,-48.34,-43.95,-986.33,1.62,0.30,2.83,-21.15,105.45,5.25,24.87,03/22/2020,00:00:32.200,0,0,0,0,0,0,0,9999,9.827,
01/01/2000,00:00:33.32,-43.95,-49.80,-991.21,-1.44,1.76,-1.64,-24.15,104.55,8.25,25.01,03/22/2020,00:00:32.300,0,0,0,0,0,0,0,9999,9.827,
01/01/2000,00:00:33.42,-60.55,-44.92,-981.93,-1.64,1.96,0.45,-23.25,105.15,6.0,25.06,03/22/2020,00:00:32.400,0,0,0,0,0,0,0,9999,9.828,
01/01/2000,00:00:33.52,-41.99,-50.29,-977.54,-0.49,2.89,-0.13,-21.60,104.85,5.40,25.01,03/22/2020,00:00:32.500,0,0,0,0,0,0,0,9999,9.828,
01/01/2000,00:00:33.62,-54.69,-42.97,-978.52,-2.58,3.24,-2.53,-22.20,105.45,6.0,25.06,03/22/2020,00:00:32.600,0,0,0,0,0,0,0,9999,9.829,
01/01/2000,00:00:33.72,-43.95,-43.95,-978.52,-0.59,2.89,-3.40,-21.45,105.90,4.50,25.15,03/22/2020,00:00:32.700,0,0,0,0,0,0,0,9999,9.829,
01/01/2000,00:00:33.82,-38.09,-43.46,-991.21,-1.12,0.96,-2.01,-23.10,104.85,7.50,24.91,03/22/2020,00:00:32.800,0,0,0,0,0,0,0,9999,9.830,
01/01/2000,00:00:33.92,-51.27,-50.29,-992.68,-1.56,3.38,-2.24,-24.45,104.10,9.0,25.06,03/22/2020,00:00:32.900,0,0,0,0,0,0,0,9999,9.830,
01/01/2000,00:00:34.01,-50.78,-36.13,-1001.46,-1.86,2.62,-0.75,-22.35,104.10,7.50,25.20,03/22/2020,00:00:33.000,0,0,0,0,0,0,0,9999,9.831,
01/01/2000,00:00:34.11,-45.90,-27.83,-985.35,1.16,-1.13,0.09,-19.80,104.10,4.65,24.87,03/22/2020,00:00:33.100,0,0,0,0,0,0,0,9999,9.831,
01/01/2000,00:00:34.21,-62.01,-45.90,-1001.46,-2.02,0.91,-0.18,-21.45,105.15,5.25,25.15,03/22/2020,00:00:33.200,0,0,0,0,0,0,0,9999,9.832,
01/01/2000,00:00:34.31,-35.64,-43.95,-989.26,-3.27,-0.09,-2.27,-21.60,104.85,5.10,24.87,03/22/2020,00:00:33.300,0,0,0,0,0,0,0,9999,9.833,
01/01/2000,00:00:34.41,-56.64,-52.73,-1004.39,2.29,-0.10,0.85,-22.20,106.65,5.25,24.91,03/22/2020,00:00:33.400,0,0,0,0,0,0,0,9999,9.833,
01/01/2000,00:00:34.51,-31.25,-36.62,-979.98,-0.34,-0.73,-2.70,-24.90,103.50,7.95,24.72,03/22/2020,00:00:33.500,0,0,0,0,0,0,0,9999,9.834,
01/01/2000,00:00:34.61,-65.43,-42.97,-989.75,-1.47,0.29,-2.14,-22.50,105.15,7.35,25.15,03/22/2020,00:00:33.600,0,0,0,0,0,0,0,9999,9.834,
01/01/2000,00:00:34.71,-56.15,-41.99,-988.77,-0.33,1.58,0.21,-21.30,106.05,5.70,24.87,03/22/2020,00:00:33.700,0,0,0,0,0,0,0,9999,9.835,
01/01/2000,00:00:34.81,-62.99,-49.32,-992.19,-0.31,2.21,-2.51,-22.05,106.35,4.65,24.72,03/22/2020,00:00:33.800,0,0,0,0,0,0,0,9999,9.835,
01/01/2000,00:00:34.91,-46.39,-53.71,-967.77,-4.10,0.31,1.18,-24.15,104.85,6.45,25.06,03/22/2020,00:00:33.900,0,0,0,0,0,0,0,9999,9.836,
01/01/2000,00:00:35.01,-51.27,-40.53,-996.09,3.23,-2.53,3.08,-20.85,106.80,5.40,25.06,03/22/2020,00:00:34.000,0,0,0,0,0,0,0,9999,9.836,
01/01/2000,00:00:35.11,-43.46,-51.27,-982.91,-3.20,0.59,-0.44,-19.95,104.70,4.95,25.15,03/22/2020,00:00:34.100,0,0,0,0,0,0,0,9999,9.837,
01/01/2000,00:00:35.21,-42.48,-47.36,-990.23,1.93,-0.36,2.14,-23.10,103.80,7.50,25.15,03/22/2020,00:00:34.200,0,0,0,0,0,0,0,9999,9.837,
01/01/2000,00:00:35.31,-38.09,-38.09,-985.35,-1.34,1.45,-1.63,-21.75,105.15,4.95,25.06,03/22/2020,00:00:34.300,0,0,0,0,0,0,0,9999,9.838,
01/01/2000,00:00:35.41,-61.52,-41.02,-976.07,-0.54,2.37,-2.84,-21.45,105.15,4.20,25.20,03/22/2020,00:00:34.400,0,0,0,0,0,0,0,9999,9.838,
01/01/2000,00:00:35.51,-49.80,-49.32,-981.93,2.02,-0.83,3.41,-20.85,104.55,4.05,25.01,03/22/2020,00:00:34.500,0,0,0,0,0,0,0,9999,9.839,
01/01/2000,00:00:35.61,-56.15,-62.99,-992.19,-1.56,3.40,-0.80,-22.95,104.40,6.30,25.15,03/22/2020,00:00:34.600,0,0,0,0,0,0,0,9999,9.839,
01/01/2000,00:00:35.71,-53.22,-45.90,-1000.98,-2.33,3.33,-2.40,-23.10,104.10,6.15,25.01,03/22/2020,00:00:34.700,0,0,0,0,0,0,0,9999,9.839,
01/01/2000,00:00:35.81,-46.88,-50.29,-989.26,1.42,-1.08,2.39,-23.70,106.05,8.25,24.87,03/22/2020,00:00:34.800,0,0,0,0,0,0,0,9999,9.840,
01/01/2000,00:00:35.91,-47.36,-41.02,-969.24,-1.11,1.56,-0.24,-22.20,104.70,4.95,25.06,03/22/2020,00:00:34.900,0,0,0,0,0,0,0,9999,9.840,
01/01/2000,00:00:36.01,-61.04,-24.90,-993.16,-1.86,0.62,-0.80,-22.65,105.30,7.50,25.35,03/22/2020,00:00:35.000,0,0,0,0,0,0,0,9999,9.841,
01/01/2000,00:00:36.11,-57.13,-43.95,-983.40,2.36,-2.02,-0.76,-22.20,107.25,3.75,24.72,03/22/2020,00:00:35.100,0,0,0,0,0,0,0,9999,9.841,
01/01/2000,00:00:36.21,-45.41,-46.88,-992.19,1.51,-0.84,1.63,-21.75,105.15,3.75,24.91,03/22/2020,00:00:35.200,0,0,0,0,0,0,0,9999,9.842,
01/01/2000,00:00:36.31,-48.34,-33.20,-973.63,3.79,1.01,1.27,-23.10,104.10,6.90,25.15,03/22/2020,00:00:35.300,0,0,0,0,0,0,0,9999,9.842,
01/01/2000,00:00:36.41,-57.62,-30.76,-984.86,2.09,-1.15,1.55,-23.55,104.40,9.90,25.35,03/22/2020,00:00:35.400,0,0,0,0,0,0,0,9999,9.843,
01/01/2000,00:00:36.51,-56.64,-39.06,-976.56,4.33,-0.89,2.15,-21.60,106.05,5.10,25.20,03/22/2020,00:00:35.500,0,0,0,0,0,0,0,9999,9.843,
01/01/2000,00:00:36.61,-49.32,-42.48,-980.47,0.66,-0.88,-0.38,-21.60,105.30,4.35,25.20,03/22/2020,00:00:35.600,0,0,0,0,0,0,0,9999,9.844,
01/01/2000,00:00:36.71,-66.41,-39.55,-977.05,1.08,-1.84,1.46,-23.25,105.15,7.65,25.06,03/22/2020,00:00:35.700,0,0,0,0,0,0,0,9999,9.844,
01/01/2000,00:00:36.81,-58.11,-51.76,-987.79,-0.67,2.02,-2.17,-23.10,106.80,4.65,25.20,03/22/2020,00:00:35.800,0,0,0,0,0,0,0,9999,9.845,
01/01/2000,00:00:36.91,-41.50,-43.46,-981.45,1.42,-3.62,2.10,-24.0,102.45,8.40,24.87,03/22/2020,00:00:35.900,0,0,0,0,0,0,0,9999,9.845,
01/01/2000,00:00:37.01,-35.64,-40.04,-1007.32,-1.68,1.27,-2.75,-22.50,103.95,6.60,25.15,03/22/2020,00:00:36.000,0,0,0,0,0,0,0,9999,9.845,
01/01/2000,00:00:37.11,-45.90,-39.55,-984.86,-1.23,2.83,-0.21,-23.55,103.95,8.10,25.06,03/22/2020,00:00:36.100,0,0,0,0,0,0,0,9999,9.846,
01/01/2000,00:00:37.21,-41.02,-40.53,-980.96,-1.73,1.75,-1.18,-20.85,105.30,5.10,24.91,03/22/2020,00:00:36.200,0,0,0,0,0,0,0,9999,9.846,
01/01/2000,00:00:37.31,-62.01,-41.02,-981.45,-1.38,2.12,-0.94,-22.65,104.85,5.70,25.01,03/22/2020,00:00:36.300,0,0,0,0,0,0,0,9999,9.847,
01/01/2000,00:00:37.41,-39.06,-47.85,-973.14,-0.73,2.27,-1.71,-21.15,106.65,4.95,25.15,03/22/2020,00:00:36.400,0,0,0,0,0,0,0,9999,9.847,
01/01/2000,00:00:37.51,-48.83,-44.92,-996.58,-1.10,0.87,0.76,-24.90,104.10,7.50,25.15,03/22/2020,00:00:36.500,0,0,0,0,0,0,0,9999,9.848,
01/01/2000,00:00:37.61,-44.92,-33.69,-985.84,-0.23,2.95,-2.08,-24.15,104.10,8.25,25.39,03/22/2020,00:00:36.600,0,0,0,0,0,0,0,9999,9.848,
01/01/2000,00:00:37.71,-43.95,-43.95,-975.59,-3.70,-0.21,-2.18,-20.70,107.25,5.25,25.06,03/22/2020,00:00:36.700,0,0,0,0,0,0,0,9999,9.848,
01/01/2000,00:00:37.81,-47.36,-50.29,-991.21,-1.32,1.71,-2.73,-22.50,106.65,3.75,25.20,03/22/2020,00:00:36.800,0,0,0,0,0,0,0,9999,9.849,
01/01/2000,00:00:37.91,-43.95,-43.95,-974.12,-1.56,1.21,-1.69,-22.05,104.85,6.45,25.15,03/22/2020,00:00:36.900,0,0,0,0,0,0,0,9999,9.849,
01/01/2000,00:00:38.01,-58.59,-51.27,-991.70,3.73,-1.40,2.34,-21.30,105.30,4.35,25.15,03/22/2020,00:00:37.000,0,0,0,0,0,0,0,9999,9.850,
01/01/2000,00:00:38.11,-45.41,-51.76,-998.05,1.78,0.77,-0.25,-24.60,104.40,7.65,25.15,03/22/2020,00:00:37.100,0,0,0,0,0,0,0,9999,9.850,
01/01/2000,00:00:38.21,-50.78,-49.32,-977.05,1.21,-0.95,0.92,-24.0,104.40,7.35,25.15,03/22/2020,00:00:37.200,0,0,0,0,0,0,0,9999,9.851,
01/01/2000,00:00:38.31,-37.11,-41.99,-992.68,2.27,0.21,1.89,-20.40,105.90,6.0,24.87,03/22/2020,00:00:37.300,0,0,0,0,0,0,0,9999,9.851,
01/01/2000,00:00:38.41,-53.22,-44.43,-1000.98,1.76,-1.38,1.18,-21.30,104.85,6.45,25.01,03/22/2020,00:00:37.400,0,0,0,0,0,0,0,9999,9.851,
01/01/2000,00:00:38.51,-40.53,-39.06,-981.93,-1.76,2.13,-1.98,-21.60,106.80,4.35,25.20,03/22/2020,00:00:37.500,0,0,0,0,0,0,0,9999,9.852,
01/01/2000,00:00:38.61,-35.16,-35.64,-991.21,2.02,-1.33,0.50,-24.30,104.70,6.0,25.25,03/22/2020,00:00:37.600,0,0,0,0,0,0,0,9999,9.852,
01/01/2000,00:00:38.71,-44.43,-57.62,-999.51,-0.78,0.71,-1.24,-23.70,105.30,7.95,25.25,03/22/2020,00:00:37.700,0,0,0,0,0,0,0,9999,9.853,
01/01/2000,00:00:38.81,-41.50,-30.76,-976.56,-2.36,1.15,-0.40,-23.55,104.40,6.30,25.39,03/22/2020,00:00:37.800,0,0,0,0,0,0,0,9999,9.853,
01/01/2000,00:00:38.91,-55.18,-39.55,-994.14,0.02,2.41,0.33,-21.30,105.30,4.35,25.15,03/22/2020,00:00:37.900,0,0,0,0,0,0,0,9999,9.853,
01/01/2000,00:00:39.01,-46.39,-44.92,-976.56,1.53,-2.63,1.76,-23.25,103.95,6.30,25.15,03/22/2020,00:00:38.000,0,0,0,0,0,0,0,9999,9.854,
01/01/2000,00:00:39.11,-59.57,-35.64,-986.33,4.23,-2.96,-0.18,-21.60,106.05,4.35,25.35,03/22/2020,00:00:38.100,0,0,0,0,0,0,0,9999,9.854,
01/01/2000,00:00:39.21,-45.41,-50.78,-958.98,0.11,-0.89,1.82,-20.55,106.80,5.40,25.35,03/22/2020,00:00:38.200,0,0,0,0,0,0,0,9999,9.855,
01/01/2000,00:00:39.31,-49.32,-66.89,-1003.91,0.62,-2.57,0.31,-24.0,104.40,8.10,25.25,03/22/2020,00:00:38.300,0,0,0,0,0,0,0,9999,9.855,
01/01/2000,00:00:39.41,-37.11,-18.55,-981.93,2.92,-0.76,2.08,-23.70,104.10,7.50,25.15,03/22/2020,00:00:38.400,0,0,0,0,0,0,0,9999,9.858,
01/01/2000,00:00:39.51,-59.08,-52.73,-1018.07,0.23,0.21,-2.39,-20.85,105.60,5.70,25.06,03/22/2020,00:00:38.500,0,0,0,0,0,0,0,9999,9.858,
01/01/2000,00:00:39.61,-71.29,-40.53,-1007.81,3.07,-0.83,-0.21,-21.60,106.80,5.10,25.15,03/22/2020,00:00:38.600,0,0,0,0,0,0,0,9999,9.859,
01/01/2000,00:00:39.71,-56.15,-47.36,-959.96,-2.95,1.58,-2.09,-22.05,104.10,7.95,25.20,03/22/2020,00:00:38.700,0,0,0,0,0,0,0,9999,9.859,
01/01/2000,00:00:39.81,-43.46,-28.32,-995.12,-2.31,2.02,-1.26,-22.05,105.30,4.35,25.25,03/22/2020,00:00:38.800,0,0,0,0,0,0,0,9999,9.860,
01/01/2000,00:00:39.91,-42.97,-53.71,-976.56,1.02,-0.71,2.40,-23.70,105.60,6.90,25.44,03/22/2020,00:00:38.900,0,0,0,0,0,0,0,9999,9.860,
01/01/2000,00:00:40.01,-39.55,-38.09,-977.54,-0.63,1.95,-0.63,-24.30,104.40,6.0,25.35,03/22/2020,00:00:39.000,0,0,0,0,0,0,0,9999,9.860,
01/01/2000,00:00:40.11,-51.76,-38.09,-963.38,-0.60,1.02,-0.50,-23.70,103.80,6.90,25.01,03/22/2020,00:00:39.100,0,0,0,0,0,0,0,9999,9.861,
01/01/2000,00:00:40.21,-51.76,-47.36,-999.02,0.0,1.40,-0.95,-22.35,106.05,5.40,25.15,03/22/2020,00:00:39.200,0,0,0,0,0,0,0,9999,9.861,
01/01/2000,00:00:40.31,-49.80,-44.43,-943.36,-1.47,2.24,-1.92,-21.60,104.85,5.10,25.39,03/22/2020,00:00:39.300,0,0,0,0,0,0,0,9999,9.861,
01/01/2000,00:00:40.41,-43.95,-32.23,-1015.14,2.91,0.56,0.44,-21.15,106.65,4.50,24.91,03/22/2020,00:00:39.400,0,0,0,0,0,0,0,9999,9.862,
01/01/2000,00:00:40.51,-52.25,-52.73,-974.12,-0.53,3.56,-1.37,-25.95,104.10,8.55,25.44,03/22/2020,00:00:39.500,0,0,0,0,0,0,0,9999,9.862,
01/01/2000,00:00:40.61,-48.34,-40.53,-1011.72,0.35,-0.50,1.65,-23.25,106.20,6.30,25.15,03/22/2020,00:00:39.600,0,0,0,0,0,0,0,9999,9.862,
01/01/2000,00:00:40.71,-44.92,-45.41,-999.51,-0.52,1.11,-2.08,-21.15,104.70,4.50,25.35,03/22/2020,00:00:39.700,0,0,0,0,0,0,0,9999,9.863,
01/01/2000,00:00:40.81,-51.27,-45.90,-988.28,-0.79,2.15,-2.13,-22.65,105.60,6.45,25.39,03/22/2020,00:00:39.800,0,0,0,0,0,0,0,9999,9.863,
01/01/2000,00:00:40.91,-43.95,-39.55,-985.84,0.82,-1.50,-0.35,-22.95,105.45,4.50,25.35,03/22/2020,00:00:39.900,0,0,0,0,0,0,0,9999,9.864,
01/01/2000,00:00:41.01,-45.41,-61.52,-1007.81,2.36,-1.08,-1.80,-21.60,106.05,4.65,25.20,03/22/2020,00:00:40.000,0,0,0,0,0,0,0,9999,9.856,
01/01/2000,00:00:41.13,-57.13,-50.78,-991.21,-0.35,1.90,-1.34,-25.20,102.75,8.25,25.35,03/22/2020,00:00:40.100,0,0,0,0,0,0,0,9999,9.857,
01/01/2000,00:00:41.23,-48.83,-43.46,-990.72,0.96,2.88,-1.71,-24.15,104.85,7.20,25.20,03/22/2020,00:00:40.200,0,0,0,0,0,0,0,9999,9.857,
01/01/2000,00:00:41.33,-52.25,-51.27,-996.58,-1.37,1.07,-2.02,-21.30,105.60,5.70,25.35,03/22/2020,00:00:40.300,0,0,0,0,0,0,0,9999,9.857,
01/01/2000,00:00:41.43,-44.43,-33.20,-977.05,-2.47,1.69,0.27,-22.20,105.45,6.60,25.20,03/22/2020,00:00:40.400,0,0,0,0,0,0,0,9999,9.858,
01/01/2000,00:00:41.53,-49.80,-32.23,-998.54,0.0,-2.18,1.23,-22.35,105.30,5.70,25.35,03/22/2020,00:00:40.500,0,0,0,0,0,0,0,9999,9.861,
01/01/2000,00:00:41.63,-48.34,-51.76,-970.21,0.34,2.74,-0.49,-23.10,104.85,6.90,25.39,03/22/2020,00:00:40.600,0,0,0,0,0,0,0,9999,9.858,
01/01/2000,00:00:41.73,-54.20,-41.99,-993.65,2.19,-1.60,0.64,-23.55,104.40,7.35,25.59,03/22/2020,00:00:40.700,0,0,0,0,0,0,0,9999,9.861,
01/01/2000,00:00:41.83,-52.25,-39.06,-984.86,2.66,-2.42,0.77,-23.55,104.40,6.60,25.15,03/22/2020,00:00:40.800,0,0,0,0,0,0,0,9999,9.862,
01/01/2000,00:00:41.93,-53.71,-52.73,-1014.16,3.79,-3.25,1.14,-21.60,106.05,4.65,25.44,03/22/2020,00:00:40.900,0,0,0,0,0,0,0,9999,9.862,
01/01/2000,00:00:42.03,-38.57,-45.90,-965.33,-0.51,1.85,-1.76,-24.30,104.40,7.65,25.20,03/22/2020,00:00:41.000,0,0,0,0,0,0,0,9999,9.862,
01/01/2000,00:00:42.13,-48.34,-46.88,-1006.35,-2.17,3.42,-0.53,-21.45,105.45,5.25,25.15,03/22/2020,00:00:41.100,0,0,0,0,0,0,0,9999,9.863,
01/01/2000,00:00:42.23,-47.36,-37.60,-978.52,-0.60,2.22,-0.60,-20.85,106.05,4.05,25.20,03/22/2020,00:00:41.200,0,0,0,0,0,0,0,9999,9.863,
01/01/2000,00:00:42.33,-52.73,-32.71,-973.14,0.44,2.45,-2.15,-24.0,105.90,7.35,25.35,03/22/2020,00:00:41.300,0,0,0,0,0,0,0,9999,9.863,
01/01/2000,00:00:42.43,-47.36,-41.02,-974.61,-1.98,2.57,-1.97,-22.95,103.95,7.35,25.39,03/22/2020,00:00:41.400,0,0,0,0,0,0,0,9999,9.864,
01/01/2000,00:00:42.53,-54.20,-48.34,-984.86,-2.13,1.45,-3.27,-21.30,106.80,5.40,25.54,03/22/2020,00:00:41.500,0,0,0,0,0,0,0,9999,9.864,
01/01/2000,00:00:42.63,-38.57,-48.83,-971.68,-2.40,2.22,-0.79,-21.30,105.30,4.35,25.35,03/22/2020,00:00:41.600,0,0,0,0,0,0,0,9999,9.864,
01/01/2000,00:00:42.73,-55.18,-36.13,-1012.21,-1.24,1.76,-1.42,-23.55,105.15,7.05,25.35,03/22/2020,00:00:41.700,0,0,0,0,0,0,0,9999,9.865,
01/01/2000,00:00:42.83,-41.50,-52.73,-984.86,1.53,0.44,0.28,-21.75,104.70,5.25,25.35,03/22/2020,00:00:41.800,0,0,0,0,0,0,0,9999,9.865,
01/01/2000,00:00:42.93,-45.41,-46.39,-985.84,1.01,-1.27,0.96,-24.45,105.30,7.95,25.20,03/22/2020,00:00:41.900,0,0,0,0,0,0,0,9999,9.865,
01/01/2000,00:00:43.03,-50.29,-52.73,-976.07,2.16,-2.34,1.79,-22.65,105.60,7.50,25.06,03/22/2020,00:00:42.000,0,0,0,0,0,0,0,9999,9.866,
01/01/2000,00:00:43.13,-41.99,-23.93,-985.84,-0.73,2.15,-1.76,-23.25,105.15,8.70,25.35,03/22/2020,00:00:42.100,0,0,0,0,0,0,0,9999,9.866,
01/01/2000,00:00:43.23,-53.71,-47.85,-986.33,2.53,1.16,2.11,-21.45,105.15,4.50,25.25,03/22/2020,00:00:42.200,0,0,0,0,0,0,0,9999,9.866,
01/01/2000,00:00:43.33,-52.73,-53.22,-980.47,-0.26,0.97,-3.20,-22.35,105.30,4.05,25.59,03/22/2020,00:00:42.300,0,0,0,0,0,0,0,9999,9.867,
01/01/2000,00:00:43.43,-41.99,-24.41,-986.82,1.83,-0.58,1.45,-23.70,103.50,7.20,25.20,03/22/2020,00:00:42.400,0,0,0,0,0,0,0,9999,9.867,
01/01/2000,00:00:43.53,-38.57,-43.95,-983.40,-1.38,1.55,-0.07,-24.15,106.05,7.95,25.39,03/22/2020,00:00:42.500,0,0,0,0,0,0,0,9999,9.867,
01/01/2000,00:00:43.63,-63.48,-44.92,-992.19,0.79,-1.66,-0.63,-20.55,107.10,5.10,25.44,03/22/2020,00:00:42.600,0,0,0,0,0,0,0,9999,9.868,
01/01/2000,00:00:43.73,-48.83,-38.57,-987.30,-0.25,2.92,-0.51,-21.15,106.05,4.65,25.54,03/22/2020,00:00:42.700,0,0,0,0,0,0,0,9999,9.868,
01/01/2000,00:00:43.83,-55.18,-37.60,-989.75,3.13,-0.87,0.07,-23.70,106.35,7.95,25.15,03/22/2020,00:00:42.800,0,0,0,0,0,0,0,9999,9.868,
01/01/2000,00:00:43.92,-49.32,-35.64,-979.49,1.85,-1.47,0.10,-20.70,105.45,4.95,25.54,03/22/2020,00:00:42.900,0,0,0,0,0,0,0,9999,9.869,
01/01/2000,00:00:44.03,-62.01,-46.88,-986.33,1.22,-1.27,0.17,-23.70,104.10,7.95,25.20,03/22/2020,00:00:43.000,0,0,0,0,0,0,0,9999,9.869,
01/01/2000,00:00:44.13,-48.83,-42.48,-972.66,2.17,-2.21,-0.18,-23.40,104.85,8.55,25.44,03/22/2020,00:00:43.100,0,0,0,0,0,0,0,9999,9.869,
01/01/2000,00:00:44.22,-31.25,-37.60,-983.40,-0.46,0.10,-3.32,-23.40,105.30,8.55,25.25,03/22/2020,00:00:43.200,0,0,0,0,0,0,0,9999,9.870,
01/01/2000,00:00:44.32,-41.50,-46.88,-1002.93,3.67,-3.22,1.02,-21.15,105.90,7.05,25.39,03/22/2020,00:00:43.300,0,0,0,0,0,0,0,9999,9.870,
01/01/2000,00:00:44.42,-51.76,-53.22,-993.65,-1.68,3.64,-1.34,-21.75,106.65,6.30,25.35,03/22/2020,00:00:43.400,0,0,0,0,0,0,0,9999,9.870,
01/01/2000,00:00:44.52,-63.96,-26.37,-993.65,-0.19,2.40,-2.46,-21.60,106.05,4.65,25.39,03/22/2020,00:00:43.500,0,0,0,0,0,0,0,9999,9.870,
01/01/2000,00:00:44.62,-58.11,-36.13,-979.49,-0.02,0.97,-1.49,-24.45,104.55,6.90,25.44,03/22/2020,00:00:43.600,0,0,0,0,0,0,0,9999,9.871,
01/01/2000,00:00:44.72,-43.46,-36.13,-982.42,-0.67,1.98,-1.45,-24.60,103.95,7.05,25.15,03/22/2020,00:00:43.700,0,0,0,0,0,0,0,9999,9.871,
01/01/2000,00:00:44.82,-55.66,-53.22,-979.49,-3.60,2.41,-0.24,-22.50,104.70,5.25,25.35,03/22/2020,00:00:43.800,0,0,0,0,0,0,0,9999,9.871,
01/01/2000,00:00:44.92,-45.41,-39.06,-986.82,1.23,-1.53,2.08,-23.55,104.70,7.35,25.39,03/22/2020,00:00:43.900,0,0,0,0,0,0,0,9999,9.872,
01/01/2000,00:00:45.02,-41.99,-37.11,-994.63,2.67,-3.05,3.21,-22.95,105.15,4.20,25.15,03/22/2020,00:00:44.000,0,0,0,0,0,0,0,9999,9.872,
01/01/2000,00:00:45.12,-53.71,-42.48,-981.45,-1.47,1.89,-0.60,-21.30,106.35,4.65,25.73,03/22/2020,00:00:44.100,0,0,0,0,0,0,0,9999,9.872,
01/01/2000,00:00:45.22,-40.53,-41.02,-976.56,2.89,-1.07,2.11,-22.95,104.40,7.35,25.44,03/22/2020,00:00:44.200,0,0,0,0,0,0,0,9999,9.873,
01/01/2000,00:00:45.32,-48.34,-40.53,-991.70,0.06,1.0,0.21,-24.0,103.95,8.40,25.44,03/22/2020,00:00:44.300,0,0,0,0,0,0,0,9999,9.873,
01/01/2000,00:00:45.42,-58.59,-41.02,-988.28,1.97,-0.31,1.73,-21.15,105.15,5.25,25.54,03/22/2020,00:00:44.400,0,0,0,0,0,0,0,9999,9.873,
01/01/2000,00:00:45.52,-36.62,-45.41,-994.63,0.15,1.47,0.24,-21.30,105.60,5.70,25.44,03/22/2020,00:00:44.500,0,0,0,0,0,0,0,9999,9.873,
01/01/2000,00:00:45.62,-43.46,-34.67,-967.77,-1.76,1.72,-2.42,-21.30,105.30,5.10,25.39,03/22/2020,00:00:44.600,0,0,0,0,0,0,0,9999,9.874,
01/01/2000,00:00:45.72,-62.50,-31.74,-972.66,-0.34,1.89,-0.15,-23.10,104.55,7.20,25.20,03/22/2020,00:00:44.700,0,0,0,0,0,0,0,9999,9.874,
01/01/2000,00:00:45.82,-55.66,-35.16,-975.59,2.77,-1.16,1.23,-23.55,103.95,9.45,25.54,03/22/2020,00:00:44.800,0,0,0,0,0,0,0,9999,9.874,
01/01/2000,00:00:45.92,-47.36,-43.95,-980.96,3.70,0.51,0.93,-23.25,103.65,6.0,25.59,03/22/2020,00:00:44.000,0,0,0,0,0,0,0,9999,9.854,
01/01/2000,00:00:46.09,-45.90,-28.32,-994.14,-2.55,2.34,-0.69,-20.85,105.60,5.10,25.44,03/22/2020,00:00:45.100,0,0,0,0,0,0,0,9999,9.855,
01/01/2000,00:00:46.20,-37.60,-46.88,-995.12,-1.37,3.30,0.55,-22.05,105.60,5.70,25.68,03/22/2020,00:00:45.200,0,0,0,0,0,0,0,9999,9.853,
01/01/2000,00:00:46.30,-55.66,-42.48,-976.56,-2.13,3.40,-2.54,-21.60,105.30,6.15,25.54,03/22/2020,00:00:45.300,0,0,0,0,0,0,0,9999,9.851,
01/01/2000,00:00:46.42,-48.83,-35.64,-1003.42,-0.85,0.36,-1.59,-24.45,104.55,9.30,25.25,03/22/2020,00:00:45.400,0,0,0,0,0,0,0,9999,9.853,
01/01/2000,00:00:46.52,-41.50,-37.11,-972.17,-1.36,2.07,-1.34,-24.15,104.55,7.95,25.68,03/22/2020,00:00:45.500,0,0,0,0,0,0,0,9999,9.854,
01/01/2000,00:00:46.62,-31.74,-38.57,-983.89,-0.14,1.29,-0.56,-22.50,105.45,4.20,25.59,03/22/2020,00:00:45.600,0,0,0,0,0,0,0,9999,9.859,
01/01/2000,00:00:46.72,-47.85,-30.76,-970.21,-3.08,3.06,0.24,-22.05,105.60,5.40,25.39,03/22/2020,00:00:45.700,0,0,0,0,0,0,0,9999,9.854,
01/01/2000,00:00:46.82,-50.29,-34.67,-973.14,3.08,-0.60,2.64,-22.05,105.60,4.65,25.44,03/22/2020,00:00:45.800,0,0,0,0,0,0,0,9999,9.855,
01/01/2000,00:00:46.92,-32.71,-46.88,-988.28,-0.17,1.43,-2.50,-22.95,103.95,7.05,25.59,03/22/2020,00:00:45.900,0,0,0,0,0,0,0,9999,9.855,
01/01/2000,00:00:47.02,-61.04,-39.06,-985.84,1.90,-2.25,1.83,-23.55,104.70,7.05,25.44,03/22/2020,00:00:45.000,0,0,0,0,0,0,0,9999,9.855,
01/01/2000,00:00:47.12,-48.34,-36.62,-995.12,-1.80,-0.24,-2.16,-24.60,105.45,6.30,25.54,03/22/2020,00:00:46.100,0,0,0,0,0,0,0,9999,9.856,
01/01/2000,00:00:47.22,-51.27,-52.73,-992.19,3.36,-2.08,1.49,-22.20,106.65,3.75,25.59,03/22/2020,00:00:46.200,0,0,0,0,0,0,0,9999,9.856,
01/01/2000,00:00:47.32,-57.13,-38.09,-982.91,1.50,-2.38,1.24,-23.25,104.40,6.60,25.39,03/22/2020,00:00:46.300,0,0,0,0,0,0,0,9999,9.856,
01/01/2000,00:00:47.42,-63.96,-39.06,-979.00,-2.74,3.67,-0.93,-19.65,106.95,5.25,25.44,03/22/2020,00:00:46.400,0,0,0,0,0,0,0,9999,9.857,
01/01/2000,00:00:47.52,-53.22,-28.81,-1000.0,3.01,-2.39,-0.57,-22.65,106.35,5.10,25.68,03/22/2020,00:00:46.500,0,0,0,0,0,0,0,9999,9.857,
01/01/2000,00:00:47.62,-50.29,-41.99,-983.40,0.99,-0.52,1.56,-24.45,103.80,7.20,25.39,03/22/2020,00:00:46.600,0,0,0,0,0,0,0,9999,9.857,
01/01/2000,00:00:47.72,-49.80,-31.74,-986.82,2.87,1.82,1.55,-23.25,102.90,7.65,25.59,03/22/2020,00:00:46.700,0,0,0,0,0,0,0,9999,9.858,
01/01/2000,00:00:47.82,-41.02,-39.06,-983.40,2.15,-0.05,1.50,-21.45,104.70,4.95,25.20,03/22/2020,00:00:46.800,0,0,0,0,0,0,0,9999,9.858,
01/01/2000,00:00:47.92,-51.76,-41.02,-998.05,2.35,-0.11,-0.57,-20.40,106.65,4.20,25.68,03/22/2020,00:00:46.900,0,0,0,0,0,0,0,9999,9.858,
01/01/2000,00:00:48.02,-59.08,-39.55,-987.79,4.24,-1.92,0.56,-23.25,105.45,8.40,25.68,03/22/2020,00:00:46.000,0,0,0,0,0,0,0,9999,9.859,
01/01/2000,00:00:48.12,-45.41,-46.39,-990.72,2.40,-1.38,3.26,-22.35,105.30,5.10,25.73,03/22/2020,00:00:47.100,0,0,0,0,0,0,0,9999,9.859,
01/01/2000,00:00:48.22,-55.66,-41.50,-982.42,-1.05,0.53,-2.73,-23.10,104.10,7.50,25.78,03/22/2020,00:00:47.200,0,0,0,0,0,0,0,9999,9.859,
01/01/2000,00:00:48.32,-39.55,-48.34,-988.77,2.31,-2.61,-0.90,-23.25,103.65,7.65,25.59,03/22/2020,00:00:47.300,0,0,0,0,0,0,0,9999,9.859,
01/01/2000,00:00:48.42,-43.46,-52.73,-986.82,-0.64,1.27,-1.19,-23.55,104.70,7.05,25.35,03/22/2020,00:00:47.400,0,0,0,0,0,0,0,9999,9.860,
01/01/2000,00:00:48.52,-50.29,-38.09,-981.45,0.87,-0.47,1.95,-21.60,105.30,5.10,25.44,03/22/2020,00:00:47.500,0,0,0,0,0,0,0,9999,9.860,
01/01/2000,00:00:48.62,-37.60,-47.85,-972.66,-0.89,0.24,-0.51,-20.70,105.90,5.25,25.44,03/22/2020,00:00:47.600,0,0,0,0,0,0,0,9999,9.860,
01/01/2000,00:00:48.72,-43.95,-48.83,-984.38,0.70,2.44,0.02,-21.30,106.35,4.35,25.54,03/22/2020,00:00:47.700,0,0,0,0,0,0,0,9999,9.861,
01/01/2000,00:00:48.82,-53.71,-49.32,-978.03,-1.51,1.79,-3.12,-24.15,103.80,7.95,25.68,03/22/2020,00:00:47.800,0,0,0,0,0,0,0,9999,9.861,
01/01/2000,00:00:48.92,-48.34,-50.78,-984.86,2.11,-1.73,2.74,-23.40,106.05,7.50,25.44,03/22/2020,00:00:47.900,0,0,0,0,0,0,0,9999,9.861,
01/01/2000,00:00:49.02,-40.04,-32.23,-992.19,-0.24,2.65,-3.62,-21.75,106.65,3.45,25.44,03/22/2020,00:00:47.000,0,0,0,0,0,0,0,9999,9.862,
01/01/2000,00:00:49.12,-40.04,-36.13,-998.05,-1.69,2.63,-1.92,-24.0,104.70,6.60,25.59,03/22/2020,00:00:48.100,0,0,0,0,0,0,0,9999,9.862,
01/01/2000,00:00:49.22,-42.48,-41.02,-962.40,4.16,-1.38,1.56,-19.80,105.30,4.65,25.59,03/22/2020,00:00:48.200,0,0,0,0,0,0,0,9999,9.862,
01/01/2000,00:00:49.32,-38.09,-41.50,-997.07,-2.06,1.57,-2.91,-21.30,104.55,4.35,25.73,03/22/2020,00:00:48.300,0,0,0,0,0,0,0,9999,9.862,
01/01/2000,00:00:49.42,-55.18,-37.11,-980.96,0.07,1.43,-1.28,-25.05,103.65,8.70,25.54,03/22/2020,00:00:48.400,0,0,0,0,0,0,0,9999,9.863,
01/01/2000,00:00:49.52,-48.83,-43.95,-1009.28,-0.04,3.05,-0.67,-22.05,105.30,6.15,25.44,03/22/2020,00:00:48.500,0,0,0,0,0,0,0,9999,9.863,
01/01/2000,00:00:49.62,-49.80,-40.04,-982.91,-1.11,1.89,-0.79,-22.05,104.55,5.10,25.44,03/22/2020,00:00:48.600,0,0,0,0,0,0,0,9999,9.863,
01/01/2000,00:00:49.72,-50.29,-42.48,-989.75,2.98,-0.02,-0.54,-22.05,104.85,5.10,25.78,03/22/2020,00:00:48.700,0,0,0,0,0,0,0,9999,9.866,
01/01/2000,00:00:49.82,-54.69,-43.46,-986.82,2.73,0.06,2.98,-21.15,105.45,4.95,25.78,03/22/2020,00:00:48.800,0,0,0,0,0,0,0,9999,9.866,
01/01/2000,00:00:49.92,-42.97,-39.55,-971.68,2.80,-2.50,1.64,-22.65,105.30,8.55,25.78,03/22/2020,00:00:48.900,0,0,0,0,0,0,0,9999,9.864,
01/01/2000,00:00:50.02,-53.22,-42.48,-979.98,-0.87,-4.03,2.58,-23.70,104.85,7.95,25.59,03/22/2020,00:00:48.000,0,0,0,0,0,0,0,9999,9.866,
01/01/2000,00:00:50.12,-46.88,-46.88,-995.61,1.18,-0.02,-2.18,-22.50,105.15,6.30,25.35,03/22/2020,00:00:49.100,0,0,0,0,0,0,0,9999,9.867,
01/01/2000,00:00:50.22,-51.76,-38.09,-971.68,-1.98,3.15,-3.79,-21.75,103.95,7.05,25.78,03/22/2020,00:00:49.200,0,0,0,0,0,0,0,9999,9.867,
01/01/2000,00:00:50.32,-41.99,-37.11,-1005.86,-0.14,1.80,-1.31,-22.95,106.65,4.05,25.39,03/22/2020,00:00:49.300,0,0,0,0,0,0,0,9999,9.867,
01/01/2000,00:00:50.42,-52.25,-59.57,-990.72,-1.53,0.83,-1.85,-22.35,105.60,5.70,25.54,03/22/2020,00:00:49.400,0,0,0,0,0,0,0,9999,9.868,
01/01/2000,00:00:50.52,-43.46,-31.74,-969.24,3.45,-0.41,2.98,-22.05,104.85,5.10,25.78,03/22/2020,00:00:49.500,0,0,0,0,0,0,0,9999,9.868,
01/01/2000,00:00:50.62,-57.13,-44.43,-1003.91,0.08,0.53,0.74,-22.95,102.90,7.05,25.68,03/22/2020,00:00:49.600,0,0,0,0,0,0,0,9999,9.868,
01/01/2000,00:00:50.72,-46.39,-33.69,-957.52,2.59,-1.44,1.75,-22.65,106.05,7.50,25.68,03/22/2020,00:00:49.700,0,0,0,0,0,0,0,9999,9.868,
01/01/2000,00:00:50.82,-44.43,-45.41,-990.72,2.71,-1.42,1.17,-21.75,105.15,4.95,25.78,03/22/2020,00:00:49.800,0,0,0,0,0,0,0,9999,9.869,
01/01/2000,00:00:50.92,-38.57,-30.76,-999.51,1.99,-2.83,2.73,-20.70,106.65,3.75,25.68,03/22/2020,00:00:49.900,0,0,0,0,0,0,0,9999,9.869,
01/01/2000,00:00:51.02,-58.11,-49.32,-985.35,2.57,-1.15,1.44,-24.15,104.85,6.45,25.54,03/22/2020,00:00:49.000,0,0,0,0,0,0,0,9999,9.869,
01/01/2000,00:00:51.12,-47.36,-36.62,-1006.35,-2.39,3.63,-2.26,-21.60,107.10,4.35,25.54,03/22/2020,00:00:50.100,0,0,0,0,0,0,0,9999,9.869,
01/01/2000,00:00:51.22,-41.99,-49.80,-987.30,-0.24,2.26,-2.05,-23.10,105.30,5.70,25.78,03/22/2020,00:00:50.200,0,0,0,0,0,0,0,9999,9.870,
01/01/2000,00:00:51.32,-44.43,-41.02,-993.65,3.0,-1.76,2.96,-20.70,105.90,5.25,25.59,03/22/2020,00:00:50.300,0,0,0,0,0,0,0,9999,9.870,
01/01/2000,00:00:51.42,-35.64,-32.71,-988.28,2.16,-2.47,-0.01,-22.65,104.85,6.45,25.78,03/22/2020,00:00:50.400,0,0,0,0,0,0,0,9999,9.870,
01/01/2000,00:00:51.52,-52.73,-46.39,-979.98,2.16,-2.30,1.65,-21.15,105.45,4.50,25.73,03/22/2020,00:00:50.500,0,0,0,0,0,0,0,9999,9.871,
01/01/2000,00:00:51.62,-44.43,-31.25,-985.84,2.58,-0.04,3.48,-21.30,106.80,5.40,25.44,03/22/2020,00:00:50.600,0,0,0,0,0,0,0,9999,9.871,
01/01/2000,00:00:51.72,-50.78,-41.50,-979.00,1.81,-0.77,2.95,-23.25,102.90,7.35,25.68,03/22/2020,00:00:50.700,0,0,0,0,0,0,0,9999,9.871,
01/01/2000,00:00:51.82,-46.39,-39.55,-967.77,-1.78,2.50,-1.95,-24.30,102.15,7.05,25.68,03/22/2020,00:00:50.800,0,0,0,0,0,0,0,9999,9.871,
01/01/2000,00:00:51.92,-62.01,-49.80,-1016.11,-1.22,2.03,0.19,-22.95,103.95,5.25,25.44,03/22/2020,00:00:50.900,0,0,0,0,0,0,0,9999,9.872,
01/01/2000,00:00:52.02,-47.36,-48.34,-968.26,-0.05,0.82,1.60,-20.85,105.30,5.70,25.39,03/22/2020,00:00:50.000,0,0,0,0,0,0,0,9999,9.872,
01/01/2000,00:00:52.12,-49.32,-40.53,-999.51,1.06,-1.81,0.31,-23.25,105.15,7.65,25.68,03/22/2020,00:00:51.100,0,0,0,0,0,0,0,9999,9.872,
01/01/2000,00:00:52.22,-42.48,-53.22,-977.54,0.89,-1.32,-0.02,-22.95,104.70,5.25,25.73,03/22/2020,00:00:51.200,0,0,0,0,0,0,0,9999,9.872,
01/01/2000,00:00:52.32,-35.16,-30.27,-980.96,2.94,-1.29,-0.20,-21.30,105.60,3.30,25.78,03/22/2020,00:00:51.300,0,0,0,0,0,0,0,9999,9.873,
01/01/2000,00:00:52.42,-57.62,-63.96,-993.65,3.40,0.27,-0.73,-24.0,105.45,7.35,25.73,03/22/2020,00:00:51.400,0,0,0,0,0,0,0,9999,9.873,
01/01/2000,00:00:52.52,-44.43,-47.36,-986.33,4.31,-2.30,1.74,-22.95,103.20,8.10,25.68,03/22/2020,00:00:51.500,0,0,0,0,0,0,0,9999,9.873,
01/01/2000,00:00:52.61,-54.69,-52.73,-1013.67,0.59,-1.75,2.36,-21.45,106.65,4.95,25.68,03/22/2020,00:00:51.600,0,0,0,0,0,0,0,9999,9.873,
01/01/2000,00:00:52.72,-33.20,-42.48,-984.86,0.0,1.76,-1.96,-21.45,105.90,4.50,25.73,03/22/2020,00:00:51.700,0,0,0,0,0,0,0,9999,9.874,
01/01/2000,00:00:52.81,-48.34,-54.20,-999.02,-2.56,2.77,0.60,-21.60,106.80,4.35,25.92,03/22/2020,00:00:51.800,0,0,0,0,0,0,0,9999,9.874,
01/01/2000,00:00:52.91,-40.04,-30.76,-966.80,-0.58,3.22,-2.40,-23.10,103.50,7.20,25.92,03/22/2020,00:00:51.900,0,0,0,0,0,0,0,9999,9.874,
01/01/2000,00:00:53.01,-32.71,-16.60,-960.94,-2.79,1.11,-4.56,-23.70,104.55,7.95,25.87,03/22/2020,00:00:51.000,0,0,0,0,0,0,0,9999,9.874,
01/01/2000,00:00:53.11,-55.66,-43.46,-1011.23,0.42,0.05,1.97,-23.10,104.85,6.90,25.87,03/22/2020,00:00:52.100,0,0,0,0,0,0,0,9999,9.875,
01/01/2000,00:00:53.21,-42.97,-49.32,-944.34,-2.20,1.72,-2.64,-24.30,104.40,6.30,25.97,03/22/2020,00:00:52.200,0,0,0,0,0,0,0,9999,9.875,
01/01/2000,00:00:53.31,-40.53,-45.41,-1000.98,2.79,1.22,0.30,-22.05,105.60,4.35,25.87,03/22/2020,00:00:52.300,0,0,0,0,0,0,0,9999,9.875,
01/01/2000,00:00:53.41,-54.20,-37.60,-962.40,-0.94,1.64,-1.44,-21.60,106.05,6.45,25.59,03/22/2020,00:00:52.400,0,0,0,0,0,0,0,9999,9.875,
01/01/2000,00:00:53.51,-45.41,-25.39,-1004.39,-0.24,2.34,0.24,-20.70,105.15,3.75,25.73,03/22/2020,00:00:52.500,0,0,0,0,0,0,0,9999,9.876,
01/01/2000,00:00:53.61,-36.62,-42.48,-965.82,0.23,0.70,-3.82,-23.40,103.05,7.95,25.73,03/22/2020,00:00:52.600,0,0,0,0,0,0,0,9999,9.876,
01/01/2000,00:00:53.71,-43.46,-47.85,-988.28,2.66,-0.73,1.44,-22.95,103.65,6.60,25.68,03/22/2020,00:00:52.700,0,0,0,0,0,0,0,9999,9.876,
01/01/2000,00:00:53.81,-20.02,-43.46,-973.63,-3.05,4.39,-2.11,-21.15,105.90,6.0,25.59,03/22/2020,00:00:52.800,0,0,0,0,0,0,0,9999,9.876,
01/01/2000,00:00:53.91,-47.85,-53.71,-982.91,1.95,-1.47,1.29,-21.75,105.90,5.25,25.87,03/22/2020,00:00:52.900,0,0,0,0,0,0,0,9999,9.877,
01/01/2000,00:00:54.01,-55.66,-23.93,-989.75,-1.22,3.35,-1.80,-24.0,103.95,6.60,25.78,03/22/2020,00:00:52.000,0,0,0,0,0,0,0,9999,9.877,
01/01/2000,00:00:54.11,-63.96,-40.04,-1009.28,-1.82,2.02,0.21,-20.40,105.90,5.55,25.92,03/22/2020,00:00:53.100,0,0,0,0,0,0,0,9999,9.877,
01/01/2000,00:00:54.21,-47.85,-36.13,-977.05,1.65,0.11,-0.02,-23.25,105.90,7.05,25.73,03/22/2020,00:00:53.200,0,0,0,0,0,0,0,9999,9.877,
01/01/2000,00:00:54.31,-54.20,-35.16,-1000.98,1.87,3.49,-4.83,-22.50,104.70,7.35,25.54,03/22/2020,00:00:53.300,0,0,0,0,0,0,0,9999,9.877,
01/01/2000,00:00:54.41,-48.34,-55.18,-978.52,0.14,1.28,-3.49,-22.65,106.05,4.65,25.87,03/22/2020,00:00:53.400,0,0,0,0,0,0,0,9999,9.878,
01/01/2000,00:00:54.51,-50.29,-41.02,-999.02,-2.32,1.50,1.39,-22.35,105.30,4.35,25.78,03/22/2020,00:00:53.500,0,0,0,0,0,0,0,9999,9.878,
01/01/2000,00:00:54.61,-44.43,-51.27,-978.52,1.83,-0.70,-0.06,-21.45,105.15,4.50,25.35,03/22/2020,00:00:53.600,0,0,0,0,0,0,0,9999,9.878,
01/01/2000,00:00:54.71,-49.80,-44.43,-979.98,2.69,-0.70,1.22,-22.20,104.70,7.35,25.97,03/22/2020,00:00:53.700,0,0,0,0,0,0,0,9999,9.878,
01/01/2000,00:00:54.81,-43.46,-31.74,-989.26,0.40,-1.87,-0.63,-25.95,103.50,8.25,25.68,03/22/2020,00:00:53.800,0,0,0,0,0,0,0,9999,9.879,
01/01/2000,00:00:54.91,-59.57,-46.39,-1001.95,-1.06,2.40,-2.39,-22.50,104.70,8.40,25.78,03/22/2020,00:00:53.900,0,0,0,0,0,0,0,9999,9.879,
01/01/2000,00:00:55.01,-60.06,-30.76,-959.96,2.04,0.34,0.08,-20.85,104.85,4.35,25.92,03/22/2020,00:00:53.000,0,0,0,0,0,0,0,9999,9.879,
01/01/2000,00:00:55.11,-57.62,-35.16,-979.98,1.53,-0.96,-0.40,-21.45,106.20,6.30,25.92,03/22/2020,00:00:54.100,0,0,0,0,0,0,0,9999,9.879,
01/01/2000,00:00:55.21,-42.97,-36.13,-977.05,2.80,1.19,0.49,-21.60,106.35,4.05,25.87,03/22/2020,00:00:54.200,0,0,0,0,0,0,0,9999,9.880,
01/01/2000,00:00:55.31,-44.92,-52.25,-988.28,1.93,1.12,-2.93,-21.75,104.40,4.50,25.73,03/22/2020,00:00:54.300,0,0,0,0,0,0,0,9999,9.880,
01/01/2000,00:00:55.41,-54.69,-39.55,-994.63,1.50,-0.43,1.76,-23.40,105.60,6.15,25.73,03/22/2020,00:00:54.400,0,0,0,0,0,0,0,9999,9.880,
01/01/2000,00:00:55.51,-57.62,-44.43,-982.91,-0.48,1.14,-3.15,-24.0,103.65,8.40,25.78,03/22/2020,00:00:54.500,0,0,0,0,0,0,0,9999,9.880,
01/01/2000,00:00:55.61,-43.46,-45.41,-992.19,2.01,-1.71,1.49,-21.60,106.35,4.35,25.73,03/22/2020,00:00:54.600,0,0,0,0,0,0,0,9999,9.880,
01/01/2000,00:00:55.71,-54.20,-35.64,-972.66,0.83,0.78,-2.36,-22.05,104.10,4.65,25.92,03/22/2020,00:00:54.700,0,0,0,0,0,0,0,9999,9.881,
01/01/2000,00:00:55.81,-50.78,-43.46,-993.16,0.76,-1.24,4.07,-23.40,106.05,7.20,25.78,03/22/2020,00:00:54.800,0,0,0,0,0,0,0,9999,9.881,
01/01/2000,00:00:55.91,-41.02,-50.29,-992.68,1.0,0.49,1.79,-23.10,104.10,3.60,25.78,03/22/2020,00:00:54.900,0,0,0,0,0,0,0,9999,9.881,
01/01/2000,00:00:56.01,-35.16,-42.97,-990.72,3.31,-2.72,1.44,-24.45,104.10,7.20,25.78,03/22/2020,00:00:54.000,0,0,0,0,0,0,0,9999,9.881,
01/01/2000,00:00:56.11,-52.73,-40.04,-992.19,-1.28,2.43,-2.50,-23.40,105.30,6.15,25.87,03/22/2020,00:00:55.100,0,0,0,0,0,0,0,9999,9.882,
01/01/2000,00:00:56.21,-49.32,-36.62,-994.63,-0.34,1.53,-1.15,-22.50,103.95,6.60,25.78,03/22/2020,00:00:55.200,0,0,0,0,0,0,0,9999,9.882,
01/01/2000,00:00:56.31,-46.88,-47.36,-991.21,-1.09,0.77,-3.21,-21.60,107.55,6.15,25.73,03/22/2020,00:00:55.300,0,0,0,0,0,0,0,9999,9.882,
01/01/2000,00:00:56.41,-39.55,-46.39,-991.70,-2.66,1.39,0.72,-21.30,105.60,4.35,25.73,03/22/2020,00:00:55.400,0,0,0,0,0,0,0,9999,9.882,
01/01/2000,00:00:56.51,-60.06,-49.80,-1000.0,2.21,-1.46,-0.50,-22.35,106.05,4.35,25.87,03/22/2020,00:00:55.500,0,0,0,0,0,0,0,9999,9.882,
01/01/2000,00:00:56.61,-59.57,-36.62,-1000.49,-1.40,1.53,-1.95,-25.05,103.95,8.70,25.73,03/22/2020,00:00:55.600,0,0,0,0,0,0,0,9999,9.883,
01/01/2000,00:00:56.71,-49.32,-41.50,-994.14,-0.31,0.60,-1.40,-22.35,104.55,7.95,26.06,03/22/2020,00:00:55.700,0,0,0,0,0,0,0,9999,9.883,
01/01/2000,00:00:56.81,-49.32,-46.39,-994.14,-0.86,2.51,-0.50,-21.15,106.20,4.20,25.92,03/22/2020,00:00:55.800,0,0,0,0,0,0,0,9999,9.883,
01/01/2000,00:00:56.91,-51.76,-41.02,-983.40,2.24,-1.25,1.67,-21.60,105.60,4.05,25.87,03/22/2020,00:00:55.900,0,0,0,0,0,0,0,9999,9.883,
01/01/2000,00:00:57.01,-45.90,-39.06,-984.38,-0.42,1.48,-0.08,-23.55,103.65,6.60,25.73,03/22/2020,00:00:55.000,0,0,0,0,0,0,0,9999,9.884,
01/01/2000,00:00:57.11,-59.08,-42.97,-1010.74,1.54,1.63,-1.27,-19.95,105.45,5.55,25.87,03/22/2020,00:00:56.100,0,0,0,0,0,0,0,9999,9.884,
01/01/2000,00:00:57.21,-46.88,-37.60,-971.19,-0.94,0.27,-1.78,-22.20,104.40,7.65,25.87,03/22/2020,00:00:56.200,0,0,0,0,0,0,0,9999,9.884,
01/01/2000,00:00:57.31,-50.78,-51.27,-1022.95,4.33,-2.40,1.40,-24.0,104.40,7.65,25.68,03/22/2020,00:00:56.300,0,0,0,0,0,0,0,9999,9.884,
01/01/2000,00:00:57.41,-47.36,-43.95,-972.66,-2.02,1.18,-3.07,-21.45,104.70,4.50,25.92,03/22/2020,00:00:56.400,0,0,0,0,0,0,0,9999,9.884,
01/01/2000,00:00:57.51,-50.78,-37.11,-1006.35,3.42,0.05,-0.13,-22.20,104.40,4.50,25.92,03/22/2020,00:00:56.500,0,0,0,0,0,0,0,9999,9.885,
01/01/2000,00:00:57.61,-39.06,-41.99,-983.89,1.11,-0.41,1.71,-22.95,105.15,4.50,25.92,03/22/2020,00:00:56.600,0,0,0,0,0,0,0,9999,9.885,
01/01/2000,00:00:57.71,-54.20,-48.34,-986.82,1.28,-0.67,3.12,-22.50,105.90,7.65,25.78,03/22/2020,00:00:56.700,0,0,0,0,0,0,0,9999,9.885,
01/01/2000,00:00:57.81,-51.27,-42.48,-988.77,-1.47,1.13,-2.33,-24.15,104.55,6.90,25.73,03/22/2020,00:00:56.800,0,0,0,0,0,0,0,9999,9.885,
01/01/2000,00:00:57.91,-41.50,-42.48,-997.07,0.01,1.53,-1.79,-22.50,105.15,7.65,25.87,03/22/2020,00:00:56.900,0,0,0,0,0,0,0,9999,9.885,
01/01/2000,00:00:58.01,-73.73,-41.02,-991.21,-2.25,1.55,-1.08,-20.70,105.90,4.95,25.78,03/22/2020,00:00:56.000,0,0,0,0,0,0,0,9999,9.886,
01/01/2000,00:00:58.11,-44.92,-35.64,-998.54,-3.42,2.47,-2.36,-20.85,105.60,5.70,26.11,03/22/2020,00:00:57.100,0,0,0,0,0,0,0,9999,9.886,
01/01/2000,00:00:58.21,-50.29,-34.67,-988.77,1.11,0.61,1.03,-20.40,105.90,5.55,25.97,03/22/2020,00:00:57.200,0,0,0,0,0,0,0,9999,9.886,
01/01/2000,00:00:58.31,-47.36,-49.80,-1006.84,-0.25,-0.22,-1.02,-22.05,105.60,7.20,25.97,03/22/2020,00:00:57.300,0,0,0,0,0,0,0,9999,9.886,
01/01/2000,00:00:58.41,-56.15,-42.97,-983.40,-1.39,0.44,-2.54,-25.05,103.20,8.70,25.92,03/22/2020,00:00:57.400,0,0,0,0,0,0,0,9999,9.886,
01/01/2000,00:00:58.51,-48.34,-38.09,-1008.30,-0.79,1.80,-1.65,-23.55,103.95,6.30,25.73,03/22/2020,00:00:57.500,0,0,0,0,0,0,0,9999,9.887,
01/01/2000,00:00:58.61,-56.64,-40.04,-978.52,-1.51,1.50,-0.82,-22.65,104.85,3.30,26.21,03/22/2020,00:00:57.600,0,0,0,0,0,0,0,9999,9.887,
01/01/2000,00:00:58.71,-62.01,-56.15,-1000.98,2.73,-1.82,3.64,-20.40,105.45,4.95,25.87,03/22/2020,00:00:57.700,0,0,0,0,0,0,0,9999,9.887,
01/01/2000,00:00:58.81,-48.34,-41.02,-988.77,0.84,-1.31,-0.86,-22.95,103.65,6.0,26.06,03/22/2020,00:00:57.800,0,0,0,0,0,0,0,9999,9.887,
01/01/2000,00:00:58.91,-53.71,-30.76,-991.21,-1.06,1.60,-0.64,-22.50,104.40,5.25,25.92,03/22/2020,00:00:57.900,0,0,0,0,0,0,0,9999,9.887,
01/01/2000,00:00:59.01,-41.02,-44.92,-985.84,-1.14,2.09,-1.51,-21.15,104.70,5.55,25.97,03/22/2020,00:00:57.000,0,0,0,0,0,0,0,9999,9.888,
01/01/2000,00:00:59.11,-32.71,-44.43,-971.19,0.80,0.71,4.27,-24.15,104.85,4.65,26.21,03/22/2020,00:00:58.100,0,0,0,0,0,0,0,9999,9.888,
01/01/2000,00:00:59.21,-43.46,-39.06,-987.30,1.73,-0.01,-0.60,-23.70,104.10,7.95,26.06,03/22/2020,00:00:58.200,0,0,0,0,0,0,0,9999,9.888,
01/01/2000,00:00:59.31,-53.22,-49.80,-979.98,0.46,0.65,2.27,-22.20,106.20,5.25,25.78,03/22/2020,00:00:58.300,0,0,0,0,0,0,0,9999,9.888,
01/01/2000,00:00:59.41,-41.50,-48.34,-969.73,1.80,0.02,3.48,-21.75,104.70,4.20,25.68,03/22/2020,00:00:58.400,0,0,0,0,0,0,0,9999,9.890,
01/01/2000,00:00:59.51,-57.62,-24.90,-990.23,-1.90,1.24,-2.83,-22.95,104.70,5.55,26.06,03/22/2020,00:00:58.500,0,0,0,0,0,0,0,9999,9.890,
01/01/2000,00:00:59.61,-56.64,-38.09,-996.58,-0.70,1.27,-0.44,-24.15,103.80,9.0,26.21,03/22/2020,00:00:58.600,0,0,0,0,0,0,0,9999,9.890,
01/01/2000,00:00:59.71,-55.66,-32.23,-979.49,2.18,-1.73,0.48,-22.65,105.30,7.50,25.92,03/22/2020,00:00:58.700,0,0,0,0,0,0,0,9999,9.891,
01/01/2000,00:00:59.81,-34.67,-41.99,-983.89,-1.27,-0.85,-1.37,-22.65,105.60,4.35,25.92,03/22/2020,00:00:58.800,0,0,0,0,0,0,0,9999,9.891,
01/01/2000,00:00:59.91,-45.90,-35.16,-987.79,-1.17,0.83,-0.72,-23.25,104.70,7.05,25.97,03/22/2020,00:00:58.900,0,0,0,0,0,0,0,9999,9.891,
01/01/2000,00:01:00.01,-48.34,-37.11,-985.35,-1.12,1.98,-2.03,-21.60,105.60,5.70,25.92,03/22/2020,00:00:58.000,0,0,0,0,0,0,0,9999,9.891,
01/01/2000,00:01:00.11,-40.53,-55.18,-991.70,1.30,-1.85,0.44,-20.85,106.35,4.35,25.68,03/22/2020,00:00:59.100,0,0,0,0,0,0,0,9999,9.891,
01/01/2000,00:01:00.21,-41.50,-45.41,-964.36,0.50,2.50,-2.75,-23.25,103.65,8.10,25.97,03/22/2020,00:00:59.200,0,0,0,0,0,0,0,9999,9.892,
01/01/2000,00:01:00.31,-45.90,-36.13,-996.58,3.29,-0.47,-0.56,-24.15,105.30,6.45,25.97,03/22/2020,00:00:59.300,0,0,0,0,0,0,0,9999,9.892,
01/01/2000,00:01:00.41,-50.78,-47.36,-983.89,2.58,-1.89,0.67,-23.55,104.40,5.25,26.06,03/22/2020,00:00:59.400,0,0,0,0,0,0,0,9999,9.892,
01/01/2000,00:01:00.51,-32.23,-38.57,-951.17,-1.85,1.34,-3.18,-22.20,105.90,4.50,25.73,03/22/2020,00:00:59.500,0,0,0,0,0,0,0,9999,9.892,
01/01/2000,00:01:00.61,-66.41,-41.99,-1026.86,-0.98,2.68,-0.84,-21.75,105.15,6.0,25.92,03/22/2020,00:00:59.600,0,0,0,0,0,0,0,9999,9.892,
01/01/2000,00:01:00.71,-37.60,-50.29,-968.75,-0.94,3.55,-3.57,-24.60,103.95,7.35,25.87,03/22/2020,00:00:59.700,0,0,0,0,0,0,0,9999,9.893,
01/01/2000,00:01:00.81,-55.66,-40.04,-992.19,0.52,-0.99,2.66,-23.70,104.85,7.95,25.97,03/22/2020,00:00:59.800,0,0,0,0,0,0,0,9999,9.893,
01/01/2000,00:01:00.91,-64.45,-58.11,-969.73,1.31,4.06,-0.96,-22.95,105.15,7.05,26.11,03/22/2020,00:00:59.900,0,0,0,0,0,0,0,9999,9.893,
01/01/2000,00:01:01.01,-65.92,-41.99,-999.02,-1.45,1.30,-3.70,-24.0,103.20,6.30,26.26,03/22/2020,00:00:59.000,0,0,0,0,0,0,0,9999,9.888,
01/01/2000,00:01:01.11,-59.57,-38.57,-974.61,1.64,-0.38,2.24,-22.05,106.35,4.35,26.06,03/22/2020,00:01:00.100,0,0,0,0,0,0,0,9999,9.892,
01/01/2000,00:01:01.21,-46.88,-33.69,-964.36,-1.34,1.32,-2.41,-23.10,105.30,5.10,25.92,03/22/2020,00:01:00.200,0,0,0,0,0,0,0,9999,9.892,
01/01/2000,00:01:01.31,-38.57,-38.09,-1000.0,-0.33,-1.15,2.54,-21.60,105.60,4.35,25.87,03/22/2020,00:01:00.300,0,0,0,0,0,0,0,9999,9.892,
01/01/2000,00:01:01.41,-25.88,-47.36,-970.21,3.08,-2.05,3.74,-24.0,102.90,8.70,26.06,03/22/2020,00:01:00.400,0,0,0,0,0,0,0,9999,9.892,
01/01/2000,00:01:01.51,-50.78,-49.80,-966.80,2.08,-0.96,0.96,-23.40,104.55,7.95,26.11,03/22/2020,00:01:00.500,0,0,0,0,0,0,0,9999,9.892,
01/01/2000,00:01:01.61,-51.76,-43.95,-1039.55,2.08,-2.05,-0.06,-22.35,104.85,5.40,26.06,03/22/2020,00:01:00.600,0,0,0,0,0,0,0,9999,9.893,
01/01/2000,00:01:01.71,-43.46,-52.25,-952.64,-2.10,1.11,-0.94,-22.05,104.55,5.70,25.92,03/22/2020,00:01:00.700,0,0,0,0,0,0,0,9999,9.893,
01/01/2000,00:01:01.81,-48.34,-24.90,-1006.35,-1.56,0.46,-0.56,-23.70,104.10,6.15,25.92,03/22/2020,00:01:00.800,0,0,0,0,0,0,0,9999,9.893,
01/01/2000,00:01:01.91,-77.64,-57.62,-1047.85,2.12,-1.68,0.78,-21.15,105.15,4.50,25.87,03/22/2020,00:01:00.900,0,0,0,0,0,0,0,9999,9.893,
01/01/2000,00:01:02.01,-33.20,-43.46,-934.57,3.32,-1.99,3.13,-23.70,102.30,8.25,25.97,03/22/2020,00:01:00.000,0,0,0,0,0,0,0,9999,9.893,
01/01/2000,00:01:02.11,-70.80,-45.90,-1026.86,-0.95,0.89,0.08,-21.60,103.80,7.50,26.06,03/22/2020,00:01:01.100,0,0,0,0,0,0,0,9999,9.893,
01/01/2000,00:01:02.21,-49.80,-37.60,-970.21,2.48,-1.39,0.89,-24.30,103.65,6.60,26.21,03/22/2020,00:01:01.200,0,0,0,0,0,0,0,9999,9.894,
01/01/2000,00:01:02.31,-61.04,-33.69,-991.70,-1.66,3.76,0.08,-21.75,105.15,3.75,26.06,03/22/2020,00:01:01.300,0,0,0,0,0,0,0,9999,9.894,
01/01/2000,00:01:02.41,-47.85,-48.34,-952.64,1.14,-0.60,0.71,-22.50,106.20,4.50,25.92,03/22/2020,00:01:01.400,0,0,0,0,0,0,0,9999,9.894,
01/01/2000,00:01:02.51,-46.39,-45.90,-997.56,1.79,-1.21,1.20,-23.25,103.20,8.10,25.87,03/22/2020,00:01:01.500,0,0,0,0,0,0,0,9999,9.894,
01/01/2000,00:01:02.61,-37.11,-31.25,-979.49,-2.43,2.39,-0.89,-23.55,103.65,6.30,25.92,03/22/2020,00:01:01.600,0,0,0,0,0,0,0,9999,9.894,
01/01/2000,00:01:02.71,-65.43,-50.29,-1018.55,-0.23,1.06,0.11,-22.20,105.15,7.65,26.11,03/22/2020,00:01:01.700,0,0,0,0,0,0,0,9999,9.894,
01/01/2000,00:01:02.81,-50.78,-24.90,-975.10,-0.24,2.42,-3.33,-21.30,105.60,4.05,25.92,03/22/2020,00:01:01.800,0,0,0,0,0,0,0,9999,9.895,
01/01/2000,00:01:02.91,-53.71,-55.18,-994.14,-2.33,1.12,-0.81,-23.55,105.45,7.65,26.21,03/22/2020,00:01:01.900,0,0,0,0,0,0,0,9999,9.895,
01/01/2000,00:01:03.01,-44.43,-40.04,-978.52,-2.27,0.69,-1.10,-20.55,104.85,5.40,25.92,03/22/2020,00:01:01.000,0,0,0,0,0,0,0,9999,9.895,
01/01/2000,00:01:03.11,-53.71,-49.32,-999.51,-0.50,0.98,-1.05,-22.05,104.55,5.10,26.11,03/22/2020,00:01:02.100,0,0,0,0,0,0,0,9999,9.895,
01/01/2000,00:01:03.21,-41.02,-54.69,-965.82,-1.47,2.36,-1.69,-23.25,104.70,7.05,25.78,03/22/2020,00:01:02.200,0,0,0,0,0,0,0,9999,9.895,
01/01/2000,00:01:03.31,-43.46,-40.53,-983.40,1.40,-0.44,0.61,-23.40,104.85,7.20,26.11,03/22/2020,00:01:02.300,0,0,0,0,0,0,0,9999,9.895,
01/01/2000,00:01:03.41,-66.89,-39.06,-1007.81,2.18,-2.44,0.24,-22.35,105.30,5.10,25.92,03/22/2020,00:01:02.400,0,0,0,0,0,0,0,9999,9.896,
01/01/2000,00:01:03.51,-49.32,-45.41,-941.89,0.85,-3.01,0.05,-20.70,105.45,4.50,26.26,03/22/2020,00:01:02.500,0,0,0,0,0,0,0,9999,9.896,
01/01/2000,00:01:03.61,-52.25,-36.13,-1006.35,-1.29,3.15,-1.75,-21.60,105.60,4.65,26.11,03/22/2020,00:01:02.600,0,0,0,0,0,0,0,9999,9.896,
01/01/2000,00:01:03.71,-41.99,-40.53,-993.65,-0.96,0.06,0.75,-24.15,105.60,7.20,25.92,03/22/2020,00:01:02.700,0,0,0,0,0,0,0,9999,9.896,
01/01/2000,00:01:03.81,-48.34,-45.41,-982.91,1.62,-1.59,2.29,-22.65,103.80,7.95,25.78,03/22/2020,00:01:02.800,0,0,0,0,0,0,0,9999,9.896,
01/01/2000,00:01:03.91,-43.95,-41.99,-978.52,-0.64,2.90,-1.14,-23.40,103.80,6.90,26.11,03/22/2020,00:01:02.900,0,0,0,0,0,0,0,9999,9.897,
01/01/2000,00:01:04.01,-48.34,-42.48,-998.05,0.79,-0.29,1.08,-24.0,104.40,6.0,25.97,03/22/2020,00:01:02.000,0,0,0,0,0,0,0,9999,9.897,
01/01/2000,00:01:04.11,-40.53,-33.20,-977.54,-1.57,2.51,-3.41,-22.20,105.15,3.75,26.06,03/22/2020,00:01:03.100,0,0,0,0,0,0,0,9999,9.897,
01/01/2000,00:01:04.21,-43.46,-50.29,-1009.28,0.70,-1.41,0.82,-21.75,105.15,4.50,26.06,03/22/2020,00:01:03.200,0,0,0,0,0,0,0,9999,9.895,
01/01/2000,00:01:04.32,-49.32,-48.34,-984.38,2.29,0.17,1.98,-21.60,105.30,5.70,26.06,03/22/2020,00:01:03.300,0,0,0,0,0,0,0,9999,9.897,
01/01/2000,00:01:04.42,-44.92,-26.37,-997.56,-1.93,2.76,-0.40,-22.20,103.65,6.0,25.78,03/22/2020,00:01:03.400,0,0,0,0,0,0,0,9999,9.897,
01/01/2000,00:01:04.51,-39.06,-36.13,-956.54,-1.88,2.56,-2.70,-22.35,105.30,5.70,25.87,03/22/2020,00:01:03.500,0,0,0,0,0,0,0,9999,9.898,
01/01/2000,00:01:04.61,-46.39,-36.13,-985.84,0.63,-0.53,2.66,-21.30,104.55,4.65,26.26,03/22/2020,00:01:03.600,0,0,0,0,0,0,0,9999,9.898,
01/01/2000,00:01:04.71,-58.59,-47.36,-991.21,1.73,-0.35,-0.32,-22.20,105.90,5.25,26.11,03/22/2020,00:01:03.700,0,0,0,0,0,0,0,9999,9.898,
01/01/2000,00:01:04.81,-48.34,-36.13,-973.14,1.35,-2.24,0.40,-23.40,103.05,7.95,26.11,03/22/2020,00:01:03.800,0,0,0,0,0,0,0,9999,9.898,
01/01/2000,00:01:04.91,-43.46,-43.95,-995.61,-3.11,4.06,-0.08,-23.25,103.95,7.65,25.92,03/22/2020,00:01:03.900,0,0,0,0,0,0,0,9999,9.898,
01/01/2000,00:01:05.01,-55.66,-44.43,-984.86,1.95,-2.01,2.33,-23.40,103.80,6.45,25.87,03/22/2020,00:01:03.000,0,0,0,0,0,0,0,9999,9.898,
01/01/2000,00:01:05.11,-47.36,-42.48,-982.42,-1.56,0.56,-0.89,-24.15,104.10,7.50,26.26,03/22/2020,00:01:04.100,0,0,0,0,0,0,0,9999,9.898,
01/01/2000,00:01:05.21,-50.29,-38.09,-991.21,1.01,-0.44,2.68,-22.20,106.65,4.95,26.06,03/22/2020,00:01:04.200,0,0,0,0,0,0,0,9999,9.899,
01/01/2000,00:01:05.31,-49.32,-35.16,-968.26,-1.11,0.92,-1.64,-21.45,106.65,4.95,26.06,03/22/2020,00:01:04.300,0,0,0,0,0,0,0,9999,9.899,
01/01/2000,00:01:05.41,-47.85,-35.16,-1007.81,-0.01,-0.31,1.32,-22.20,106.20,5.55,26.26,03/22/2020,00:01:04.400,0,0,0,0,0,0,0,9999,9.899,
01/01/2000,00:01:05.51,-55.66,-30.76,-981.93,2.60,-2.11,0.92,-23.70,103.80,7.50,26.21,03/22/2020,00:01:04.500,0,0,0,0,0,0,0,9999,9.899,
01/01/2000,00:01:05.61,-51.27,-46.39,-975.59,-1.71,-0.15,-4.40,-23.70,105.30,6.45,25.92,03/22/2020,00:01:04.600,0,0,0,0,0,0,0,9999,9.899,
01/01/2000,00:01:05.71,-44.92,-44.43,-987.79,4.40,-3.32,0.49,-21.45,105.45,7.05,25.87,03/22/2020,00:01:04.600,0,0,0,0,0,0,0,9999,9.881,
01/01/2000,00:01:05.91,-60.06,-38.09,-971.19,4.35,-2.27,2.32,-22.05,106.05,5.10,26.06,03/22/2020,00:01:04.800,0,0,0,0,0,0,0,9999,9.886,
01/01/2000,00:01:06.01,-62.99,-39.06,-989.26,3.60,-1.32,0.68,-24.15,104.85,6.45,26.06,03/22/2020,00:01:04.900,0,0,0,0,0,0,0,9999,9.886,
01/01/2000,00:01:06.11,-59.08,-43.46,-975.10,-1.22,2.99,-1.39,-22.95,104.70,8.10,26.11,03/22/2020,00:01:05.000,0,0,0,0,0,0,0,9999,9.886,
01/01/2000,00:01:06.21,-48.83,-41.50,-996.58,2.57,-0.79,0.85,-22.05,105.30,5.40,25.87,03/22/2020,00:01:05.100,0,0,0,0,0,0,0,9999,9.886,
01/01/2000,00:01:06.31,-50.29,-44.43,-989.75,2.84,-2.34,-0.72,-21.15,106.20,5.25,25.97,03/22/2020,00:01:05.200,0,0,0,0,0,0,0,9999,9.886,
01/01/2000,00:01:06.41,-45.90,-49.80,-988.28,-1.37,2.16,-0.23,-22.35,103.80,7.50,25.97,03/22/2020,00:01:05.300,0,0,0,0,0,0,0,9999,9.887,
01/01/2000,00:01:06.51,-49.32,-41.02,-995.12,-0.17,3.02,-0.86,-22.20,104.70,6.0,25.92,03/22/2020,00:01:05.400,0,0,0,0,0,0,0,9999,9.887,
01/01/2000,00:01:06.61,-61.52,-40.04,-990.72,0.30,-0.38,2.60,-21.60,105.30,6.15,26.26,03/22/2020,00:01:05.500,0,0,0,0,0,0,0,9999,9.887,
01/01/2000,00:01:06.71,-31.74,-39.55,-982.91,0.82,-1.90,1.05,-25.20,104.85,8.55,26.06,03/22/2020,00:01:05.600,0,0,0,0,0,0,0,9999,9.887,
01/01/2000,00:01:06.81,-47.85,-46.39,-991.21,-1.61,2.89,-2.26,-22.65,103.50,7.50,25.87,03/22/2020,00:01:05.700,0,0,0,0,0,0,0,9999,9.887,
01/01/2000,00:01:06.91,-45.41,-37.60,-968.75,1.57,-2.31,-1.15,-21.60,104.85,4.35,25.92,03/22/2020,00:01:05.800,0,0,0,0,0,0,0,9999,9.887,
01/01/2000,00:01:07.01,-53.22,-44.92,-1001.46,-1.87,0.22,-2.41,-22.35,105.30,4.65,25.87,03/22/2020,00:01:05.900,0,0,0,0,0,0,0,9999,9.883,
01/01/2000,00:01:07.11,-62.50,-34.67,-978.03,-1.63,2.46,-3.76,-22.20,106.65,6.30,26.21,03/22/2020,00:01:06.000,0,0,0,0,0,0,0,9999,9.886,
01/01/2000,00:01:07.21,-43.95,-46.88,-1000.98,-2.85,1.86,-1.35,-22.95,106.65,5.55,26.45,03/22/2020,00:01:06.100,0,0,0,0,0,0,0,9999,9.886,
01/01/2000,00:01:07.31,-45.90,-38.57,-972.66,-1.03,2.95,-1.02,-24.0,103.95,7.35,26.11,03/22/2020,00:01:06.200,0,0,0,0,0,0,0,9999,9.887,
01/01/2000,00:01:07.41,-67.38,-42.97,-1000.0,-0.21,-0.85,2.26,-23.40,104.85,6.15,25.92,03/22/2020,00:01:06.300,0,0,0,0,0,0,0,9999,9.887,
01/01/2000,00:01:07.51,-54.69,-59.57,-981.45,-2.73,1.16,-1.52,-23.40,104.55,6.90,26.21,03/22/2020,00:01:06.400,0,0,0,0,0,0,0,9999,9.887,
01/01/2000,00:01:07.61,-40.53,-42.97,-987.79,3.05,-0.66,0.89,-22.20,105.45,5.55,26.30,03/22/2020,00:01:06.500,0,0,0,0,0,0,0,9999,9.887,
01/01/2000,00:01:07.71,-27.83,-39.06,-968.75,-0.47,2.18,-2.09,-21.60,105.60,4.65,26.21,03/22/2020,00:01:06.600,0,0,0,0,0,0,0,9999,9.887,
01/01/2000,00:01:07.81,-53.22,-52.73,-999.51,-1.64,2.37,-1.11,-23.70,105.30,7.50,26.21,03/22/2020,00:01:06.700,0,0,0,0,0,0,0,9999,9.887,
01/01/2000,00:01:07.91,-53.22,-27.83,-973.63,3.08,-0.76,2.20,-25.05,103.95,8.10,26.21,03/22/2020,00:01:06.800,0,0,0,0,0,0,0,9999,9.888,
01/01/2000,00:01:08.01,-53.22,-36.62,-992.19,-0.90,3.94,-2.64,-24.15,104.85,7.20,25.87,03/22/2020,00:01:06.900,0,0,0,0,0,0,0,9999,9.888,
01/01/2000,00:01:08.11,-49.32,-30.27,-979.00,0.29,-0.60,0.11,-22.05,106.05,5.40,25.97,03/22/2020,00:01:07.000,0,0,0,0,0,0,0,9999,9.888,
01/01/2000,00:01:08.21,-46.39,-36.13,-993.65,1.15,-1.44,-0.26,-24.45,103.50,6.45,26.26,03/22/2020,00:01:07.100,0,0,0,0,0,0,0,9999,9.888,
01/01/2000,00:01:08.31,-51.76,-36.62,-968.75,3.54,0.71,2.63,-22.35,104.85,5.70,26.26,03/22/2020,00:01:07.200,0,0,0,0,0,0,0,9999,9.888,
01/01/2000,00:01:08.41,-49.80,-29.30,-976.56,-2.77,1.46,-1.01,-20.25,106.05,4.35,26.21,03/22/2020,00:01:07.300,0,0,0,0,0,0,0,9999,9.888,
01/01/2000,00:01:08.51,-52.73,-43.95,-1006.84,-2.03,3.66,1.48,-25.05,104.40,8.10,26.11,03/22/2020,00:01:07.400,0,0,0,0,0,0,0,9999,9.889,
01/01/2000,00:01:08.61,-34.18,-36.13,-978.03,-0.55,1.35,-1.15,-23.25,104.40,8.40,26.11,03/22/2020,00:01:07.500,0,0,0,0,0,0,0,9999,9.889,
01/01/2000,00:01:08.71,-42.97,-50.78,-996.09,-1.71,1.73,-1.45,-21.45,105.90,4.50,26.30,03/22/2020,00:01:07.600,0,0,0,0,0,0,0,9999,9.889,
01/01/2000,00:01:08.81,-52.25,-41.99,-985.35,2.93,-1.47,3.43,-22.20,106.20,4.95,25.87,03/22/2020,00:01:07.700,0,0,0,0,0,0,0,9999,9.889,
01/01/2000,00:01:08.91,-45.41,-41.99,-983.40,0.73,0.60,-0.36,-20.40,105.15,4.95,26.11,03/22/2020,00:01:07.800,0,0,0,0,0,0,0,9999,9.889,
01/01/2000,00:01:09.01,-53.71,-32.23,-984.86,-2.44,3.50,-2.43,-24.0,103.95,6.60,26.26,03/22/2020,00:01:07.900,0,0,0,0,0,0,0,9999,9.889,
01/01/2000,00:01:09.11,-48.34,-48.34,-987.30,1.11,-0.82,2.05,-24.60,104.40,7.65,26.30,03/22/2020,00:01:08.000,0,0,0,0,0,0,0,9999,9.890,
01/01/2000,00:01:09.21,-41.99,-49.32,-983.40,1.44,1.05,-0.79,-22.20,105.45,8.10,25.92,03/22/2020,00:01:08.100,0,0,0,0,0,0,0,9999,9.890,
01/01/2000,00:01:09.31,-48.34,-51.76,-1001.95,4.43,-1.31,1.92,-24.30,105.45,6.60,26.26,03/22/2020,00:01:08.200,0,0,0,0,0,0,0,9999,9.890,
01/01/2000,00:01:09.41,-39.55,-17.09,-955.08,-0.11,1.48,-1.07,-22.35,104.85,5.70,26.21,03/22/2020,00:01:08.300,0,0,0,0,0,0,0,9999,9.890,
01/01/2000,00:01:09.51,-55.66,-55.18,-989.75,2.06,-2.71,3.69,-21.75,105.15,4.50,26.26,03/22/2020,00:01:08.400,0,0,0,0,0,0,0,9999,9.890,
01/01/2000,00:01:09.61,-46.88,-41.50,-978.03,-0.76,2.91,-2.73,-22.50,105.45,4.95,26.06,03/22/2020,00:01:08.500,0,0,0,0,0,0,0,9999,9.890,
01/01/2000,00:01:09.71,-65.43,-56.15,-1009.28,-2.03,1.69,0.08,-21.30,104.85,6.45,26.40,03/22/2020,00:01:08.600,0,0,0,0,0,0,0,9999,9.891,
01/01/2000,00:01:09.81,-49.32,-32.71,-982.42,3.27,-0.40,0.86,-23.70,103.80,6.15,25.92,03/22/2020,00:01:08.700,0,0,0,0,0,0,0,9999,9.891,
01/01/2000,00:01:09.91,-56.64,-53.71,-1008.30,1.83,1.49,1.09,-22.05,106.05,6.45,25.92,03/22/2020,00:01:08.800,0,0,0,0,0,0,0,9999,9.891,
01/01/2000,00:01:10.01,-50.78,-50.29,-989.26,-0.01,1.56,-0.06,-22.05,105.30,3.60,26.11,03/22/2020,00:01:08.900,0,0,0,0,0,0,0,9999,9.891,
01/01/2000,00:01:10.11,-49.32,-55.18,-1011.23,-1.56,2.34,-2.0,-24.0,105.15,6.60,26.40,03/22/2020,00:01:09.000,0,0,0,0,0,0,0,9999,9.891,
01/01/2000,00:01:10.21,-50.29,-42.97,-979.49,3.01,0.27,0.32,-21.15,105.90,4.20,26.11,03/22/2020,00:01:09.100,0,0,0,0,0,0,0,9999,9.891,
01/01/2000,00:01:10.31,-57.13,-74.22,-982.42,0.37,-0.82,0.82,-24.15,103.80,8.25,26.11,03/22/2020,00:01:09.200,0,0,0,0,0,0,0,9999,9.892,
01/01/2000,00:01:10.41,-47.36,-23.93,-971.19,-0.91,0.47,-1.62,-22.50,104.70,7.35,26.26,03/22/2020,00:01:09.300,0,0,0,0,0,0,0,9999,9.892,
01/01/2000,00:01:10.51,-58.59,-37.60,-1013.18,2.60,-1.74,-0.62,-22.65,104.10,7.50,26.40,03/22/2020,00:01:09.400,0,0,0,0,0,0,0,9999,9.892,
01/01/2000,00:01:10.61,-41.02,-37.11,-1005.37,0.41,-2.63,1.77,-21.75,106.95,4.95,26.21,03/22/2020,00:01:09.500,0,0,0,0,0,0,0,9999,9.892,
01/01/2000,00:01:10.71,-42.97,-42.48,-1005.37,-0.85,1.62,-2.05,-22.20,105.45,4.50,26.21,03/22/2020,00:01:09.600,0,0,0,0,0,0,0,9999,9.892,
01/01/2000,00:01:10.81,-45.90,-54.20,-997.07,-2.86,2.21,1.18,-22.95,105.45,7.65,26.11,03/22/2020,00:01:09.700,0,0,0,0,0,0,0,9999,9.892,
01/01/2000,00:01:10.91,-52.73,-57.13,-983.89,4.18,0.37,1.40,-24.30,103.65,7.35,26.06,03/22/2020,00:01:09.800,0,0,0,0,0,0,0,9999,9.893,
01/01/2000,00:01:11.01,-47.36,-30.76,-977.05,-1.47,2.10,-1.50,-23.25,105.45,5.55,26.30,03/22/2020,00:01:09.900,0,0,0,0,0,0,0,9999,9.893,
01/01/2000,00:01:11.11,-51.76,-45.90,-994.63,-1.27,1.67,-1.24,-21.75,105.90,5.25,26.21,03/22/2020,00:01:10.000,0,0,0,0,0,0,0,9999,9.893,
01/01/2000,00:01:11.21,-50.29,-37.60,-969.73,-1.31,3.15,-0.65,-23.40,104.85,6.90,26.26,03/22/2020,00:01:10.100,0,0,0,0,0,0,0,9999,9.892,
01/01/2000,00:01:11.31,-42.97,-24.41,-991.70,-2.76,0.79,-1.08,-21.45,104.70,6.0,26.21,03/22/2020,00:01:10.200,0,0,0,0,0,0,0,9999,9.893,
01/01/2000,00:01:11.41,-50.78,-42.97,-973.63,1.77,-1.53,0.77,-22.05,105.60,4.65,26.30,03/22/2020,00:01:10.300,0,0,0,0,0,0,0,9999,9.893,
01/01/2000,00:01:11.51,-42.97,-44.43,-986.33,1.63,-1.63,1.16,-24.30,102.45,9.15,26.45,03/22/2020,00:01:10.400,0,0,0,0,0,0,0,9999,9.893,
01/01/2000,00:01:11.61,-53.71,-45.90,-975.59,2.49,-0.50,2.50,-22.95,105.15,6.60,26.21,03/22/2020,00:01:10.500,0,0,0,0,0,0,0,9999,9.894,
01/01/2000,00:01:11.71,-37.11,-41.50,-994.14,1.96,1.08,-0.08,-21.60,106.35,4.65,26.26,03/22/2020,00:01:10.600,0,0,0,0,0,0,0,9999,9.894,
01/01/2000,00:01:11.81,-57.62,-41.02,-991.21,-0.01,1.93,-1.97,-20.70,106.65,3.75,26.06,03/22/2020,00:01:10.700,0,0,0,0,0,0,0,9999,9.894,
01/01/2000,00:01:11.91,-55.66,-42.97,-987.79,0.02,0.97,-1.88,-23.10,104.10,8.25,26.26,03/22/2020,00:01:10.800,0,0,0,0,0,0,0,9999,9.894,
01/01/2000,00:01:12.01,-49.80,-35.64,-972.66,-0.05,2.17,0.14,-20.85,105.60,5.40,26.21,03/22/2020,00:01:10.900,0,0,0,0,0,0,0,9999,9.894,
01/01/2000,00:01:12.11,-47.36,-38.09,-991.70,0.11,2.34,0.20,-24.0,102.90,7.35,26.26,03/22/2020,00:01:11.000,0,0,0,0,0,0,0,9999,9.894,
01/01/2000,00:01:12.21,-49.80,-34.18,-988.77,3.18,-2.63,-1.67,-22.95,105.45,7.65,26.26,03/22/2020,00:01:11.100,0,0,0,0,0,0,0,9999,9.894,
01/01/2000,00:01:12.31,-40.04,-49.32,-966.80,-0.93,1.15,-1.53,-22.35,104.10,6.15,26.50,03/22/2020,00:01:11.200,0,0,0,0,0,0,0,9999,9.895,
01/01/2000,00:01:12.41,-47.85,-49.80,-1001.95,-1.70,1.59,-2.85,-21.75,106.65,5.55,26.26,03/22/2020,00:01:11.300,0,0,0,0,0,0,0,9999,9.895,
01/01/2000,00:01:12.51,-44.92,-33.20,-995.12,0.53,-2.73,1.06,-21.30,105.30,5.40,26.11,03/22/2020,00:01:11.400,0,0,0,0,0,0,0,9999,9.895,
01/01/2000,00:01:12.61,-46.39,-36.62,-982.91,-2.11,0.23,-2.38,-20.40,105.90,5.25,26.06,03/22/2020,00:01:11.500,0,0,0,0,0,0,0,9999,9.896,
01/01/2000,00:01:12.71,-58.11,-37.60,-985.84,-1.50,1.0,-0.53,-22.65,104.85,7.95,26.30,03/22/2020,00:01:11.600,0,0,0,0,0,0,0,9999,9.895,
01/01/2000,00:01:12.81,-56.15,-25.88,-973.63,2.23,-2.95,3.49,-22.20,103.95,7.05,26.30,03/22/2020,00:01:11.700,0,0,0,0,0,0,0,9999,9.895,
01/01/2000,00:01:12.91,-56.64,-33.69,-983.89,-1.68,1.59,-1.17,-22.05,106.05,4.65,26.50,03/22/2020,00:01:11.800,0,0,0,0,0,0,0,9999,9.896,
01/01/2000,00:01:13.01,-65.43,-42.48,-985.84,3.88,-2.77,1.65,-20.55,106.05,6.15,25.92,03/22/2020,00:01:11.900,0,0,0,0,0,0,0,9999,9.897,
01/01/2000,00:01:13.11,-50.78,-45.90,-985.84,3.21,-1.35,1.57,-23.70,104.10,6.45,26.21,03/22/2020,00:01:12.000,0,0,0,0,0,0,0,9999,9.897,
01/01/2000,00:01:13.21,-49.32,-43.46,-989.26,0.56,0.51,0.52,-23.40,105.30,4.65,26.11,03/22/2020,00:01:12.100,0,0,0,0,0,0,0,9999,9.897,
01/01/2000,00:01:13.31,-42.97,-44.43,-980.47,3.20,-1.74,1.73,-23.10,104.10,5.70,26.45,03/22/2020,00:01:12.200,0,0,0,0,0,0,0,9999,9.898,
01/01/2000,00:01:13.41,-41.99,-41.99,-986.82,-1.43,1.82,-0.92,-23.40,105.30,7.95,26.40,03/22/2020,00:01:12.300,0,0,0,0,0,0,0,9999,9.898,
01/01/2000,00:01:13.51,-46.88,-48.34,-972.17,-0.34,1.78,-1.18,-21.75,104.40,5.55,26.40,03/22/2020,00:01:12.400,0,0,0,0,0,0,0,9999,9.898,
01/01/2000,00:01:13.61,-49.32,-36.62,-974.12,1.07,-1.06,-0.18,-20.70,107.70,4.20,26.26,03/22/2020,00:01:12.500,0,0,0,0,0,0,0,9999,9.898,
01/01/2000,00:01:13.71,-50.29,-47.36,-979.00,-2.27,2.35,-2.89,-21.60,105.60,4.65,26.21,03/22/2020,00:01:12.600,0,0,0,0,0,0,0,9999,9.898,
01/01/2000,00:01:13.81,-48.83,-48.83,-975.59,-2.15,1.31,-4.35,-24.0,104.70,6.60,26.40,03/22/2020,00:01:12.700,0,0,0,0,0,0,0,9999,9.897,
01/01/2000,00:01:13.91,-47.85,-38.57,-1000.98,2.24,-0.64,2.71,-23.10,102.30,8.25,26.45,03/22/2020,00:01:12.800,0,0,0,0,0,0,0,9999,9.898,
01/01/2000,00:01:14.01,-56.15,-41.99,-999.02,-1.77,2.34,-3.01,-23.40,104.10,7.20,26.50,03/22/2020,00:01:12.900,0,0,0,0,0,0,0,9999,9.899,
01/01/2000,00:01:14.11,-41.50,-44.92,-985.35,-0.11,1.47,-0.70,-22.50,105.45,4.20,26.45,03/22/2020,00:01:13.000,0,0,0,0,0,0,0,9999,9.899,
01/01/2000,00:01:14.21,-50.78,-30.76,-981.45,-0.95,3.13,-0.38,-23.40,104.55,7.50,26.30,03/22/2020,00:01:13.100,0,0,0,0,0,0,0,9999,9.899,
01/01/2000,00:01:14.31,-59.57,-32.23,-979.49,1.17,-2.92,0.39,-21.60,104.55,5.40,26.40,03/22/2020,00:01:13.200,0,0,0,0,0,0,0,9999,9.899,
01/01/2000,00:01:14.41,-44.43,-45.90,-982.91,-1.91,0.99,-0.62,-22.05,105.30,4.65,26.21,03/22/2020,00:01:13.300,0,0,0,0,0,0,0,9999,9.899,
01/01/2000,00:01:14.51,-40.04,-39.55,-980.47,-1.64,1.70,-0.93,-20.55,105.60,6.15,26.50,03/22/2020,00:01:13.400,0,0,0,0,0,0,0,9999,9.899,
01/01/2000,00:01:14.61,-45.41,-24.41,-987.79,0.92,2.55,-0.84,-22.05,105.30,5.40,26.30,03/22/2020,00:01:13.500,0,0,0,0,0,0,0,9999,9.899,
01/01/2000,00:01:14.71,-48.34,-47.85,-986.33,3.66,-2.63,0.79,-22.20,105.45,4.50,26.30,03/22/2020,00:01:13.600,0,0,0,0,0,0,0,9999,9.899,
01/01/2000,00:01:14.81,-44.92,-33.20,-969.24,-2.76,2.66,-1.27,-20.85,106.80,5.70,26.30,03/22/2020,00:01:13.700,0,0,0,0,0,0,0,9999,9.900,
01/01/2000,00:01:14.91,-52.25,-43.95,-974.61,-0.92,1.43,0.27,-24.0,104.40,6.0,26.50,03/22/2020,00:01:13.800,0,0,0,0,0,0,0,9999,9.900,
01/01/2000,00:01:15.01,-29.79,-30.76,-967.77,-2.26,0.65,-2.05,-21.45,106.20,4.95,26.30,03/22/2020,00:01:13.900,0,0,0,0,0,0,0,9999,9.900,
01/01/2000,00:01:15.11,-25.39,-25.88,-999.02,-2.12,0.31,-1.14,-24.15,104.10,9.30,26.11,03/22/2020,00:01:14.000,0,0,0,0,0,0,0,9999,9.900,
01/01/2000,00:01:15.21,-57.13,-40.04,-977.54,2.37,-0.15,0.44,-23.55,104.70,5.25,26.40,03/22/2020,00:01:14.100,0,0,0,0,0,0,0,9999,9.900,
01/01/2000,00:01:15.31,-54.69,-39.06,-979.49,-0.77,3.89,-2.41,-22.35,104.10,7.95,26.45,03/22/2020,00:01:14.200,0,0,0,0,0,0,0,9999,9.900,
01/01/2000,00:01:15.41,-57.62,-42.97,-1011.23,-0.76,1.75,-1.18,-21.15,104.40,6.0,26.50,03/22/2020,00:01:14.300,0,0,0,0,0,0,0,9999,9.900,
01/01/2000,00:01:15.51,-58.59,-39.55,-981.45,1.49,-2.05,1.07,-21.45,104.70,5.55,26.40,03/22/2020,00:01:14.400,0,0,0,0,0,0,0,9999,9.901,
01/01/2000,00:01:15.61,-39.55,-48.83,-982.42,0.28,0.39,-0.49,-21.45,105.45,6.0,26.40,03/22/2020,00:01:14.500,0,0,0,0,0,0,0,9999,9.901,
01/01/2000,00:01:15.71,-41.50,-32.71,-989.75,-1.71,3.49,-4.40,-23.10,103.80,7.95,26.21,03/22/2020,00:01:14.600,0,0,0,0,0,0,0,9999,9.901,
01/01/2000,00:01:15.81,-34.18,-33.69,-984.38,1.06,0.12,-0.65,-23.70,103.05,7.95,26.40,03/22/2020,00:01:14.700,0,0,0,0,0,0,0,9999,9.901,
01/01/2000,00:01:15.91,-52.73,-48.83,-1011.72,-2.56,-0.21,0.71,-21.60,106.05,5.10,26.45,03/22/2020,00:01:14.800,0,0,0,0,0,0,0,9999,9.901,
01/01/2000,00:01:16.01,-38.57,-40.04,-976.56,-1.81,0.57,-1.93,-24.30,104.40,6.60,26.21,03/22/2020,00:01:14.900,0,0,0,0,0,0,0,9999,9.897,
01/01/2000,00:01:16.11,-58.11,-46.39,-1000.0,2.19,-0.20,3.39,-22.20,104.70,4.20,26.30,03/22/2020,00:01:15.000,0,0,0,0,0,0,0,9999,9.885,
01/01/2000,00:01:16.32,-37.11,-54.69,-984.38,2.21,-0.67,1.85,-25.20,103.50,8.55,26.30,03/22/2020,00:01:15.200,0,0,0,0,0,0,0,9999,9.887,
01/01/2000,00:01:16.42,-48.83,-50.78,-981.45,-0.01,2.24,-0.95,-23.55,104.40,7.05,26.30,03/22/2020,00:01:15.300,0,0,0,0,0,0,0,9999,9.887,
01/01/2000,00:01:16.52,-54.20,-36.62,-998.05,-0.84,0.50,-0.07,-23.55,103.65,7.35,26.30,03/22/2020,00:01:15.400,0,0,0,0,0,0,0,9999,9.887,
01/01/2000,00:01:16.62,-47.85,-45.41,-963.38,-0.73,1.24,-2.73,-21.45,105.90,4.50,26.45,03/22/2020,00:01:15.500,0,0,0,0,0,0,0,9999,9.887,
01/01/2000,00:01:16.72,-55.66,-32.23,-985.84,2.17,-2.44,2.81,-21.45,105.90,6.30,26.45,03/22/2020,00:01:15.600,0,0,0,0,0,0,0,9999,9.887,
01/01/2000,00:01:16.82,-44.43,-45.90,-988.28,0.81,0.68,-2.89,-22.05,104.55,5.70,26.64,03/22/2020,00:01:15.700,0,0,0,0,0,0,0,9999,9.888,
01/01/2000,00:01:16.92,-48.34,-46.39,-983.89,-2.66,2.12,-1.77,-24.0,104.40,8.40,26.11,03/22/2020,00:01:15.800,0,0,0,0,0,0,0,9999,9.888,
01/01/2000,00:01:17.02,-48.34,-34.18,-1000.49,2.27,-2.45,2.55,-23.10,104.55,6.15,26.45,03/22/2020,00:01:15.900,0,0,0,0,0,0,0,9999,9.888,
01/01/2000,00:01:17.12,-48.34,-28.81,-992.19,0.78,-2.11,1.09,-22.35,104.85,3.60,26.45,03/22/2020,00:01:16.000,0,0,0,0,0,0,0,9999,9.888,
01/01/2000,00:01:17.22,-27.83,-31.25,-965.33,-0.68,2.69,-2.70,-21.75,106.20,4.95,26.59,03/22/2020,00:01:16.100,0,0,0,0,0,0,0,9999,9.888,
01/01/2000,00:01:17.32,-41.02,-34.18,-1001.46,-3.05,0.85,-2.44,-22.35,104.85,7.20,26.26,03/22/2020,00:01:16.200,0,0,0,0,0,0,0,9999,9.888,
01/01/2000,00:01:17.42,-50.78,-57.13,-985.35,-1.91,1.33,-1.31,-21.60,106.05,4.35,26.30,03/22/2020,00:01:16.300,0,0,0,0,0,0,0,9999,9.889,
01/01/2000,00:01:17.52,-62.01,-38.57,-997.07,-1.34,2.83,-2.08,-24.0,103.20,8.10,26.50,03/22/2020,00:01:16.400,0,0,0,0,0,0,0,9999,9.889,
01/01/2000,00:01:17.62,-51.27,-29.30,-993.16,2.71,0.66,1.16,-23.55,104.40,7.05,26.40,03/22/2020,00:01:16.500,0,0,0,0,0,0,0,9999,9.889,
01/01/2000,00:01:17.72,-45.41,-32.71,-977.54,3.46,-1.13,0.34,-21.75,104.70,5.25,26.40,03/22/2020,00:01:16.600,0,0,0,0,0,0,0,9999,9.889,
01/01/2000,00:01:17.82,-44.92,-34.67,-991.70,0.50,2.08,-1.19,-22.20,106.95,3.45,26.50,03/22/2020,00:01:16.700,0,0,0,0,0,0,0,9999,9.889,
01/01/2000,00:01:17.92,-50.29,-29.30,-981.93,-0.60,1.26,0.14,-22.50,105.90,5.25,26.64,03/22/2020,00:01:16.800,0,0,0,0,0,0,0,9999,9.889,
01/01/2000,00:01:18.02,-53.71,-32.71,-992.19,-2.99,1.50,-0.93,-23.40,104.55,8.55,26.74,03/22/2020,00:01:16.900,0,0,0,0,0,0,0,9999,9.889,
01/01/2000,00:01:18.12,-47.36,-37.60,-982.91,1.76,-1.54,2.25,-23.10,104.10,7.95,26.50,03/22/2020,00:01:17.000,0,0,0,0,0,0,0,9999,9.890,
01/01/2000,00:01:18.22,-59.08,-42.97,-978.03,1.54,-2.01,1.43,-21.30,105.60,6.45,26.26,03/22/2020,00:01:17.100,0,0,0,0,0,0,0,9999,9.890,
01/01/2000,00:01:18.32,-52.25,-50.78,-991.70,-2.34,1.91,-2.45,-21.75,105.90,4.50,26.40,03/22/2020,00:01:17.200,0,0,0,0,0,0,0,9999,9.890,
01/01/2000,00:01:18.42,-41.50,-31.25,-987.30,-0.76,1.37,-2.46,-24.0,103.95,7.05,26.45,03/22/2020,00:01:17.300,0,0,0,0,0,0,0,9999,9.890,
01/01/2000,00:01:18.52,-50.29,-31.25,-996.09,-1.27,1.32,-1.11,-22.20,104.40,4.50,26.45,03/22/2020,00:01:17.400,0,0,0,0,0,0,0,9999,9.890,
01/01/2000,00:01:18.62,-41.99,-31.74,-979.00,-0.70,-0.86,-0.98,-26.85,103.65,10.20,26.45,03/22/2020,00:01:17.500,0,0,0,0,0,0,0,9999,9.890,
01/01/2000,00:01:18.72,-49.32,-55.66,-980.47,1.98,-1.05,1.78,-22.95,104.40,7.05,26.45,03/22/2020,00:01:17.600,0,0,0,0,0,0,0,9999,9.890,
01/01/2000,00:01:18.82,-45.41,-46.39,-970.70,-1.94,1.61,-1.0,-23.10,105.30,5.70,26.45,03/22/2020,00:01:17.700,0,0,0,0,0,0,0,9999,9.891,
01/01/2000,00:01:18.92,-44.43,-44.43,-1008.30,1.40,-2.34,1.45,-22.20,107.25,5.25,26.50,03/22/2020,00:01:17.800,0,0,0,0,0,0,0,9999,9.891,
01/01/2000,00:01:19.01,-48.34,-24.41,-972.66,-1.82,0.73,-3.68,-22.05,106.35,4.05,26.50,03/22/2020,00:01:17.900,0,0,0,0,0,0,0,9999,9.891,
01/01/2000,00:01:19.11,-54.20,-62.50,-979.49,2.22,-1.05,4.54,-23.10,104.10,6.90,26.45,03/22/2020,00:01:18.000,0,0,0,0,0,0,0,9999,9.891,
01/01/2000,00:01:19.22,-50.29,-46.88,-990.72,-0.92,2.79,-1.47,-25.80,103.20,8.70,26.50,03/22/2020,00:01:18.100,0,0,0,0,0,0,0,9999,9.891,
01/01/2000,00:01:19.31,-45.90,-47.85,-987.30,-4.13,2.18,-1.24,-23.25,104.40,7.95,26.30,03/22/2020,00:01:18.200,0,0,0,0,0,0,0,9999,9.891,
01/01/2000,00:01:19.41,-48.83,-44.92,-999.51,0.40,1.27,-0.36,-22.20,106.20,5.25,26.74,03/22/2020,00:01:18.300,0,0,0,0,0,0,0,9999,9.876,
01/01/2000,00:01:19.61,-47.36,-41.50,-993.16,-1.61,1.89,-1.44,-20.40,104.70,3.45,26.45,03/22/2020,00:01:18.500,0,0,0,0,0,0,0,9999,9.879,
01/01/2000,00:01:19.71,-51.27,-60.55,-1003.91,0.88,2.48,-0.58,-21.15,105.45,4.95,26.50,03/22/2020,00:01:18.600,0,0,0,0,0,0,0,9999,9.879,
01/01/2000,00:01:19.81,-47.36,-39.06,-963.87,-1.11,2.55,-1.15,-24.0,105.45,7.35,26.26,03/22/2020,00:01:18.700,0,0,0,0,0,0,0,9999,9.879,
01/01/2000,00:01:19.91,-52.73,-41.02,-1009.77,2.42,-0.46,1.25,-21.45,104.70,6.0,26.30,03/22/2020,00:01:18.800,0,0,0,0,0,0,0,9999,9.879,
01/01/2000,00:01:20.01,-52.73,-44.92,-997.56,-1.34,0.52,-3.55,-22.65,103.50,7.20,26.50,03/22/2020,00:01:18.900,0,0,0,0,0,0,0,9999,9.879,
01/01/2000,00:01:20.11,-54.69,-40.53,-971.68,-2.53,2.25,-3.40,-21.75,105.15,3.75,26.50,03/22/2020,00:01:19.000,0,0,0,0,0,0,0,9999,9.880,
01/01/2000,00:01:20.21,-60.06,-39.06,-1017.09,2.31,-1.31,2.73,-20.85,104.85,5.40,26.50,03/22/2020,00:01:19.100,0,0,0,0,0,0,0,9999,9.880,
01/01/2000,00:01:20.31,-35.64,-42.48,-977.54,1.45,0.13,1.98,-23.10,105.30,6.90,26.30,03/22/2020,00:01:19.200,0,0,0,0,0,0,0,9999,9.880,
01/01/2000,00:01:20.41,-50.78,-41.50,-1007.81,-1.57,2.43,-1.65,-25.95,103.05,9.30,26.26,03/22/2020,00:01:19.300,0,0,0,0,0,0,0,9999,9.880,
01/01/2000,00:01:20.51,-45.90,-50.78,-993.65,3.46,-1.55,1.11,-23.55,104.40,6.60,26.50,03/22/2020,00:01:19.400,0,0,0,0,0,0,0,9999,9.880,
01/01/2000,00:01:20.61,-49.80,-34.67,-991.70,1.51,-1.55,1.69,-22.05,106.05,5.10,26.45,03/22/2020,00:01:19.500,0,0,0,0,0,0,0,9999,9.880,
01/01/2000,00:01:20.71,-50.29,-39.55,-983.40,2.47,-1.48,0.73,-21.60,103.80,7.50,26.74,03/22/2020,00:01:19.600,0,0,0,0,0,0,0,9999,9.880,
01/01/2000,00:01:20.81,-54.69,-41.02,-992.68,1.97,-0.11,2.07,-20.70,104.40,5.55,26.40,03/22/2020,00:01:19.700,0,0,0,0,0,0,0,9999,9.881,
01/01/2000,00:01:20.91,-40.53,-46.39,-976.56,0.76,0.68,0.86,-22.20,107.25,4.95,26.64,03/22/2020,00:01:19.800,0,0,0,0,0,0,0,9999,9.881,
01/01/2000,00:01:21.01,-50.78,-40.04,-1008.79,-0.87,1.09,-2.15,-22.35,104.55,7.50,26.50,03/22/2020,00:01:19.900,0,0,0,0,0,0,0,9999,9.881,
01/01/2000,00:01:21.11,-54.20,-50.29,-994.63,0.92,-1.62,-0.35,-23.25,105.45,6.0,26.50,03/22/2020,00:01:20.000,0,0,0,0,0,0,0,9999,9.881,
01/01/2000,00:01:21.21,-45.90,-37.60,-968.75,2.21,-1.02,-0.01,-22.20,105.15,4.20,26.59,03/22/2020,00:01:20.100,0,0,0,0,0,0,0,9999,9.881,
01/01/2000,00:01:21.31,-62.50,-49.32,-995.61,-1.47,2.99,-0.96,-21.75,104.70,5.25,26.64,03/22/2020,00:01:20.200,0,0,0,0,0,0,0,9999,9.881,
01/01/2000,00:01:21.41,-58.11,-41.02,-1000.98,0.39,-2.04,2.52,-20.85,106.05,4.65,26.45,03/22/2020,00:01:20.300,0,0,0,0,0,0,0,9999,9.882,
01/01/2000,00:01:21.51,-44.92,-48.34,-990.72,0.82,-2.01,1.32,-24.15,105.60,6.90,26.50,03/22/2020,00:01:20.400,0,0,0,0,0,0,0,9999,9.882,
01/01/2000,00:01:21.61,-57.62,-45.41,-979.00,-3.15,0.31,-0.37,-23.25,102.15,9.15,26.64,03/22/2020,00:01:20.500,0,0,0,0,0,0,0,9999,9.883,
01/01/2000,00:01:21.71,-27.83,-49.32,-968.75,3.45,-2.36,2.82,-22.50,104.40,7.35,26.59,03/22/2020,00:01:20.600,0,0,0,0,0,0,0,9999,9.882,
01/01/2000,00:01:21.81,-51.27,-50.78,-1002.44,-2.01,2.07,-3.15,-23.10,103.80,6.45,26.45,03/22/2020,00:01:20.700,0,0,0,0,0,0,0,9999,9.882,
01/01/2000,00:01:21.91,-58.59,-44.43,-967.29,-0.32,1.73,-4.44,-22.50,105.45,5.55,26.50,03/22/2020,00:01:20.800,0,0,0,0,0,0,0,9999,9.884,
01/01/2000,00:01:22.01,-40.04,-40.04,-1001.95,2.13,-0.63,2.57,-21.75,105.90,4.20,26.26,03/22/2020,00:01:20.900,0,0,0,0,0,0,0,9999,9.884,
01/01/2000,00:01:22.11,-59.57,-57.13,-980.96,-0.29,1.82,-3.65,-21.75,105.15,6.0,26.50,03/22/2020,00:01:21.000,0,0,0,0,0,0,0,9999,9.884,
01/01/2000,00:01:22.21,-43.46,-40.04,-1002.93,0.02,2.19,-1.63,-24.90,104.10,7.50,26.45,03/22/2020,00:01:21.100,0,0,0,0,0,0,0,9999,9.883,
01/01/2000,00:01:22.31,-33.69,-45.90,-958.50,2.31,0.05,2.13,-23.70,104.10,7.95,26.40,03/22/2020,00:01:21.200,0,0,0,0,0,0,0,9999,9.883,
01/01/2000,00:01:22.41,-45.41,-40.04,-993.16,3.93,0.69,1.28,-21.45,105.15,6.0,26.50,03/22/2020,00:01:21.300,0,0,0,0,0,0,0,9999,9.884,
01/01/2000,00:01:22.51,-47.36,-44.43,-1000.98,-0.81,1.87,-2.06,-23.10,107.55,5.70,26.45,03/22/2020,00:01:21.400,0,0,0,0,0,0,0,9999,9.884,
01/01/2000,00:01:22.61,-46.88,-36.62,-970.21,-2.21,1.56,-1.76,-22.65,105.30,6.45,26.50,03/22/2020,00:01:21.500,0,0,0,0,0,0,0,9999,9.885,
01/01/2000,00:01:22.71,-65.92,-43.95,-988.28,-1.82,1.81,-2.90,-20.25,105.60,5.70,26.45,03/22/2020,00:01:21.600,0,0,0,0,0,0,0,9999,9.885,
01/01/2000,00:01:22.81,-46.88,-50.29,-967.77,-1.08,2.06,-1.10,-22.95,105.15,7.35,26.45,03/22/2020,00:01:21.700,0,0,0,0,0,0,0,9999,9.884,
01/01/2000,00:01:22.91,-41.02,-40.53,-982.42,2.62,-1.28,2.62,-23.10,104.85,5.40,26.50,03/22/2020,00:01:21.800,0,0,0,0,0,0,0,9999,9.885,
01/01/2000,00:01:23.01,-50.29,-35.64,-975.59,2.71,-3.16,1.61,-23.40,105.60,5.10,26.26,03/22/2020,00:01:21.900,0,0,0,0,0,0,0,9999,9.881,
01/01/2000,00:01:23.11,-45.90,-33.20,-982.42,-0.86,0.73,-0.27,-22.05,105.60,4.05,26.59,03/22/2020,00:01:22.000,0,0,0,0,0,0,0,9999,9.884,
01/01/2000,00:01:23.21,-42.48,-46.39,-982.42,2.70,-3.08,-0.50,-21.75,104.40,5.55,26.59,03/22/2020,00:01:22.100,0,0,0,0,0,0,0,9999,9.884,
01/01/2000,00:01:23.31,-48.83,-51.27,-983.40,3.60,-0.80,0.82,-22.05,104.55,6.15,26.74,03/22/2020,00:01:22.200,0,0,0,0,0,0,0,9999,9.884,
01/01/2000,00:01:23.41,-49.32,-40.04,-979.00,-0.75,2.64,-1.11,-23.25,105.15,8.10,26.30,03/22/2020,00:01:22.300,0,0,0,0,0,0,0,9999,9.884,
01/01/2000,00:01:23.51,-60.55,-38.09,-994.14,2.14,-2.43,0.99,-23.70,103.05,6.90,26.74,03/22/2020,00:01:22.400,0,0,0,0,0,0,0,9999,9.885,
01/01/2000,00:01:23.61,-49.32,-40.53,-966.80,1.57,0.65,1.12,-21.60,105.60,5.70,26.59,03/22/2020,00:01:22.500,0,0,0,0,0,0,0,9999,9.885,
01/01/2000,00:01:23.71,-51.76,-48.83,-968.26,3.36,-1.55,1.56,-24.0,104.40,6.30,26.74,03/22/2020,00:01:22.600,0,0,0,0,0,0,0,9999,9.885,
01/01/2000,00:01:23.81,-53.71,-35.64,-986.33,0.60,-1.44,1.99,-22.20,105.15,4.95,26.59,03/22/2020,00:01:22.700,0,0,0,0,0,0,0,9999,9.885,
01/01/2000,00:01:23.91,-59.08,-42.97,-981.93,-2.68,1.37,-0.53,-22.05,106.35,6.15,26.50,03/22/2020,00:01:22.800,0,0,0,0,0,0,0,9999,9.885,
01/01/2000,00:01:24.01,-50.29,-33.20,-980.47,-2.57,1.41,-1.01,-24.0,105.15,9.45,26.74,03/22/2020,00:01:22.900,0,0,0,0,0,0,0,9999,9.885,
01/01/2000,00:01:24.11,-50.29,-50.78,-989.75,3.03,-0.21,1.66,-22.65,104.85,7.50,26.74,03/22/2020,00:01:23.000,0,0,0,0,0,0,0,9999,9.885,
01/01/2000,00:01:24.21,-31.74,-53.22,-970.21,2.92,-0.14,2.24,-22.50,106.65,5.25,26.59,03/22/2020,00:01:23.100,0,0,0,0,0,0,0,9999,9.886,
01/01/2000,00:01:24.31,-47.85,-60.06,-991.70,-1.60,1.61,-0.56,-22.95,104.70,4.50,26.78,03/22/2020,00:01:23.200,0,0,0,0,0,0,0,9999,9.886,
01/01/2000,00:01:24.41,-60.55,-55.66,-995.61,1.50,2.50,-2.83,-22.65,103.80,7.50,26.64,03/22/2020,00:01:23.300,0,0,0,0,0,0,0,9999,9.886,
01/01/2000,00:01:24.51,-40.53,-40.04,-981.93,-2.08,2.60,-2.82,-21.75,105.15,5.25,26.50,03/22/2020,00:01:23.400,0,0,0,0,0,0,0,9999,9.886,
01/01/2000,00:01:24.61,-43.46,-32.23,-988.77,-1.83,1.79,0.53,-23.70,103.80,7.95,26.50,03/22/2020,00:01:23.500,0,0,0,0,0,0,0,9999,9.886,
01/01/2000,00:01:24.71,-43.46,-41.02,-1002.93,1.01,-2.02,0.85,-23.55,104.70,7.65,26.64,03/22/2020,00:01:23.600,0,0,0,0,0,0,0,9999,9.886,
01/01/2000,00:01:24.81,-53.22,-43.95,-982.42,-0.95,1.80,-2.60,-23.55,103.95,7.35,26.30,03/22/2020,00:01:23.700,0,0,0,0,0,0,0,9999,9.886,
01/01/2000,00:01:24.91,-53.71,-21.48,-963.87,-1.84,2.92,0.20,-21.60,106.05,5.10,26.40,03/22/2020,00:01:23.800,0,0,0,0,0,0,0,9999,9.887,
01/01/2000,00:01:25.01,-55.66,-46.39,-986.33,1.89,-2.81,1.63,-22.05,104.10,4.05,26.50,03/22/2020,00:01:23.900,0,0,0,0,0,0,0,9999,9.887,
01/01/2000,00:01:25.11,-45.90,-42.97,-986.82,-1.01,-0.34,-1.68,-20.85,106.35,5.40,26.50,03/22/2020,00:01:24.000,0,0,0,0,0,0,0,9999,9.887,
01/01/2000,00:01:25.21,-41.02,-46.39,-976.07,-3.36,1.46,-1.92,-19.65,105.45,5.25,26.50,03/22/2020,00:01:24.100,0,0,0,0,0,0,0,9999,9.887,
01/01/2000,00:01:25.31,-38.57,-30.76,-1001.95,1.54,-3.31,2.03,-23.55,103.95,7.05,26.30,03/22/2020,00:01:24.200,0,0,0,0,0,0,0,9999,9.887,
01/01/2000,00:01:25.41,-37.60,-51.76,-984.38,1.15,-1.73,1.99,-22.35,105.60,5.10,26.45,03/22/2020,00:01:24.300,0,0,0,0,0,0,0,9999,9.887,
01/01/2000,00:01:25.51,-48.83,-50.29,-975.59,3.41,-0.38,0.56,-24.30,105.15,8.40,26.64,03/22/2020,00:01:24.400,0,0,0,0,0,0,0,9999,9.887,
01/01/2000,00:01:25.61,-55.18,-42.97,-979.98,2.24,-1.43,2.22,-21.75,106.20,5.25,26.74,03/22/2020,00:01:24.500,0,0,0,0,0,0,0,9999,9.887,
01/01/2000,00:01:25.71,-42.97,-38.57,-985.84,0.08,3.91,-1.12,-22.05,105.30,5.10,26.59,03/22/2020,00:01:24.600,0,0,0,0,0,0,0,9999,9.888,
01/01/2000,00:01:25.81,-64.45,-35.16,-989.26,-2.10,2.39,-3.24,-25.80,103.65,8.10,26.40,03/22/2020,00:01:24.700,0,0,0,0,0,0,0,9999,9.888,
01/01/2000,00:01:25.91,-48.34,-39.06,-983.89,0.47,-0.31,2.11,-24.60,104.70,7.35,26.59,03/22/2020,00:01:24.800,0,0,0,0,0,0,0,9999,9.888,
01/01/2000,00:01:26.01,-51.27,-47.85,-994.14,1.19,-3.14,1.50,-22.35,106.80,5.40,26.50,03/22/2020,00:01:24.900,0,0,0,0,0,0,0,9999,9.888,
01/01/2000,00:01:26.11,-41.50,-38.57,-987.30,-1.22,1.73,-3.31,-21.15,104.70,4.50,26.74,03/22/2020,00:01:25.000,0,0,0,0,0,0,0,9999,9.888,
01/01/2000,00:01:26.21,-43.46,-38.57,-989.75,1.43,-2.97,0.63,-20.85,106.35,4.05,26.74,03/22/2020,00:01:25.100,0,0,0,0,0,0,0,9999,9.888,
01/01/2000,00:01:26.31,-29.79,-39.55,-1000.98,-0.08,2.15,-0.89,-22.95,102.90,7.65,26.45,03/22/2020,00:01:25.200,0,0,0,0,0,0,0,9999,9.888,
01/01/2000,00:01:26.41,-45.41,-36.13,-977.05,0.47,-1.21,0.31,-24.45,104.10,8.25,26.74,03/22/2020,00:01:25.300,0,0,0,0,0,0,0,9999,9.889,
01/01/2000,00:01:26.51,-47.36,-34.67,-988.77,-1.27,1.19,-2.08,-23.55,103.65,5.25,26.78,03/22/2020,00:01:25.400,0,0,0,0,0,0,0,9999,9.889,
01/01/2000,00:01:26.61,-35.64,-48.83,-978.52,-0.07,2.04,0.59,-20.40,106.65,4.95,26.74,03/22/2020,00:01:25.500,0,0,0,0,0,0,0,9999,9.889,
01/01/2000,00:01:26.71,-43.95,-40.04,-981.45,-1.12,0.55,0.18,-24.30,103.95,7.05,26.78,03/22/2020,00:01:25.600,0,0,0,0,0,0,0,9999,9.889,
01/01/2000,00:01:26.81,-46.39,-33.69,-998.54,-1.89,2.31,0.34,-22.65,104.85,4.65,26.64,03/22/2020,00:01:25.700,0,0,0,0,0,0,0,9999,9.889,
01/01/2000,00:01:26.91,-42.48,-37.60,-973.14,1.56,-0.16,1.08,-20.85,106.05,4.05,26.45,03/22/2020,00:01:25.800,0,0,0,0,0,0,0,9999,9.889,
01/01/2000,00:01:27.01,-53.22,-45.90,-987.30,3.31,-2.53,0.85,-23.70,104.85,7.50,26.74,03/22/2020,00:01:25.900,0,0,0,0,0,0,0,9999,9.889,
01/01/2000,00:01:27.11,-41.02,-43.95,-1009.77,-1.32,1.30,-0.14,-22.95,104.40,5.25,26.93,03/22/2020,00:01:26.000,0,0,0,0,0,0,0,9999,9.889,
01/01/2000,00:01:27.21,-34.18,-45.90,-998.05,-1.13,2.23,-2.91,-21.30,106.05,5.10,26.50,03/22/2020,00:01:26.100,0,0,0,0,0,0,0,9999,9.890,
01/01/2000,00:01:27.31,-40.04,-44.43,-976.56,2.29,-2.37,-1.13,-22.05,106.35,3.60,26.74,03/22/2020,00:01:26.200,0,0,0,0,0,0,0,9999,9.890,
01/01/2000,00:01:27.41,-52.25,-32.71,-1000.98,0.43,-1.28,0.36,-24.0,103.20,10.20,26.74,03/22/2020,00:01:26.300,0,0,0,0,0,0,0,9999,9.890,
01/01/2000,00:01:27.51,-54.20,-44.43,-972.66,1.88,0.74,1.48,-21.75,105.15,3.15,26.74,03/22/2020,00:01:26.400,0,0,0,0,0,0,0,9999,9.890,
01/01/2000,00:01:27.61,-45.41,-40.53,-989.26,1.79,1.73,0.40,-24.0,103.95,8.40,26.83,03/22/2020,00:01:26.500,0,0,0,0,0,0,0,9999,9.890,
01/01/2000,00:01:27.71,-56.15,-39.55,-999.51,-2.50,3.64,-1.85,-24.45,106.05,5.10,26.64,03/22/2020,00:01:26.600,0,0,0,0,0,0,0,9999,9.890,
01/01/2000,00:01:27.81,-49.32,-45.41,-978.52,-1.29,2.29,-0.13,-23.70,103.50,7.95,26.74,03/22/2020,00:01:26.700,0,0,0,0,0,0,0,9999,9.890,
01/01/2000,00:01:27.91,-49.80,-35.16,-983.40,-0.92,1.77,-0.95,-21.45,106.20,5.55,26.74,03/22/2020,00:01:26.800,0,0,0,0,0,0,0,9999,9.890,
01/01/2000,00:01:28.01,-47.36,-43.46,-982.91,2.0,-0.11,1.14,-22.20,104.70,4.20,26.59,03/22/2020,00:01:26.900,0,0,0,0,0,0,0,9999,9.891,
01/01/2000,00:01:28.11,-49.80,-43.46,-974.12,0.86,2.26,-1.73,-22.05,105.60,5.40,26.50,03/22/2020,00:01:27.000,0,0,0,0,0,0,0,9999,9.891,
01/01/2000,00:01:28.21,-39.55,-36.62,-983.89,-2.10,2.65,-0.72,-19.65,103.65,5.55,26.74,03/22/2020,00:01:27.100,0,0,0,0,0,0,0,9999,9.891,
01/01/2000,00:01:28.31,-48.34,-47.36,-1009.28,1.48,-1.23,0.47,-23.70,104.85,6.90,26.59,03/22/2020,00:01:27.200,0,0,0,0,0,0,0,9999,9.891,
01/01/2000,00:01:28.41,-52.25,-36.13,-977.05,0.85,-1.48,1.54,-22.20,105.90,5.55,26.50,03/22/2020,00:01:27.300,0,0,0,0,0,0,0,9999,9.891,
01/01/2000,00:01:28.51,-32.71,-38.57,-998.54,1.28,-1.73,-0.20,-24.0,104.70,6.60,26.83,03/22/2020,00:01:27.400,0,0,0,0,0,0,0,9999,9.891,
01/01/2000,00:01:28.61,-50.78,-34.67,-974.12,3.14,-2.99,0.20,-23.25,104.40,4.20,26.78,03/22/2020,00:01:27.500,0,0,0,0,0,0,0,9999,9.891,
01/01/2000,00:01:28.71,-53.71,-29.30,-996.58,-1.02,2.85,-0.07,-21.15,105.45,4.95,26.74,03/22/2020,00:01:27.600,0,0,0,0,0,0,0,9999,9.892,
01/01/2000,00:01:28.81,-42.48,-35.16,-990.23,-2.15,4.01,-1.04,-25.20,103.80,7.95,26.83,03/22/2020,00:01:27.700,0,0,0,0,0,0,0,9999,9.892,
01/01/2000,00:01:28.91,-41.99,-27.34,-980.96,2.84,-2.58,1.27,-22.35,104.55,7.50,26.83,03/22/2020,00:01:27.800,0,0,0,0,0,0,0,9999,9.892,
01/01/2000,00:01:29.01,-47.85,-40.53,-987.79,0.89,-0.98,0.34,-22.20,106.65,4.20,26.78,03/22/2020,00:01:27.900,0,0,0,0,0,0,0,9999,9.892,
01/01/2000,00:01:29.11,-51.76,-41.50,-987.79,-0.58,3.19,0.54,-20.85,105.60,5.10,26.74,03/22/2020,00:01:28.000,0,0,0,0,0,0,0,9999,9.892,
01/01/2000,00:01:29.21,-46.88,-43.46,-996.58,2.18,-3.37,2.74,-21.45,105.90,4.95,26.59,03/22/2020,00:01:28.100,0,0,0,0,0,0,0,9999,9.892,
01/01/2000,00:01:29.31,-47.85,-25.88,-990.72,-1.47,2.05,-3.02,-22.65,103.05,8.55,26.93,03/22/2020,00:01:28.200,0,0,0,0,0,0,0,9999,9.892,
01/01/2000,00:01:29.41,-41.50,-43.46,-955.08,2.08,-1.06,0.79,-24.15,104.85,7.95,26.93,03/22/2020,00:01:28.300,0,0,0,0,0,0,0,9999,9.892,
01/01/2000,00:01:29.51,-51.76,-49.80,-1018.55,-1.12,1.03,-0.76,-23.10,103.80,8.25,26.83,03/22/2020,00:01:28.400,0,0,0,0,0,0,0,9999,9.894,
01/01/2000,00:01:29.61,-36.62,-33.69,-962.40,1.04,-1.16,2.85,-23.55,105.15,7.65,26.50,03/22/2020,00:01:28.500,0,0,0,0,0,0,0,9999,9.894,
01/01/2000,00:01:29.71,-46.39,-45.41,-978.52,3.37,-1.53,0.48,-21.15,105.90,6.0,26.26,03/22/2020,00:01:28.600,0,0,0,0,0,0,0,9999,9.893,
01/01/2000,00:01:29.81,-58.11,-45.41,-989.26,-1.50,2.50,-1.46,-21.15,107.70,5.25,26.98,03/22/2020,00:01:28.700,0,0,0,0,0,0,0,9999,9.893,
01/01/2000,00:01:29.91,-43.95,-39.55,-993.65,1.90,-1.37,0.31,-22.20,105.90,4.20,26.93,03/22/2020,00:01:28.800,0,0,0,0,0,0,0,9999,9.893,
01/01/2000,00:01:30.01,-36.13,-37.11,-990.72,2.56,-1.51,1.22,-22.65,103.80,8.55,26.64,03/22/2020,00:01:28.900,0,0,0,0,0,0,0,9999,9.891,
01/01/2000,00:01:30.11,-42.48,-51.27,-1005.86,1.05,-0.41,0.90,-22.95,103.20,5.25,26.78,03/22/2020,00:01:29.000,0,0,0,0,0,0,0,9999,9.893,
01/01/2000,00:01:30.21,-39.06,-48.83,-977.54,3.05,-1.08,0.44,-23.10,106.05,6.15,26.74,03/22/2020,00:01:29.100,0,0,0,0,0,0,0,9999,9.893,
01/01/2000,00:01:30.31,-53.22,-40.04,-991.21,-1.25,1.84,-2.76,-21.75,105.15,5.55,26.45,03/22/2020,00:01:29.200,0,0,0,0,0,0,0,9999,9.893,
01/01/2000,00:01:30.41,-44.43,-37.11,-974.12,-1.14,1.16,-1.14,-23.70,104.10,6.45,26.59,03/22/2020,00:01:29.300,0,0,0,0,0,0,0,9999,9.894,
01/01/2000,00:01:30.51,-43.46,-42.97,-981.93,2.75,-1.56,3.45,-21.75,106.20,5.25,26.83,03/22/2020,00:01:29.400,0,0,0,0,0,0,0,9999,9.894,
01/01/2000,00:01:30.61,-64.45,-40.53,-973.14,3.15,0.24,1.11,-25.20,103.05,7.95,26.64,03/22/2020,00:01:29.500,0,0,0,0,0,0,0,9999,9.894,
